id,districtid,regionid,udise,collegename,stream,status,medium,subject,choicecode,ReservationDetails,SC,ST,VJA,NTB,NTC,NTD,OBC,SBC,SEBC,EWS,General,round_id
1,Thane,Amravati,272039878,Wilson Ghatkopar Institute,Science,U,English,Science,53286,Reserved,68.33,67.58999999999999,66.25999999999999,,67.67,62.739999999999995,70.91,,66.19999999999999,65.83,71.42999999999999,3
2,Nashik,Pune,272090488,Chhatrapati Ghatkopar Institute,Arts,G,English,Science,80703,Reserved,78.93,75.15,,78.19,77.99,76.37,73.93,73.75,71.95,73.53,79.23,3
3,Nagpur,Aurangabad,272015385,N.S. Andheri Junior College,Commerce,A,English,General,45085,Open,80.16,75.3,70.25999999999999,71.82,,73.0,72.58,71.2,78.87,74.17999999999999,77.28999999999999,1
4,Nagpur,Pune,272067135,K.C. Pune College of Arts & Science,Commerce,A,Marathi,Commerce,65747,Open,77.58,77.16,74.54,81.15,,,74.65,71.96000000000001,74.9,77.01,80.35000000000001,3
5,Pune,Pune,272028017,Gokhale Dadar Junior College,Science,G,English,Arts,66066,Reserved,82.61999999999999,81.53,84.13,83.17,87.3,82.91,88.75,84.21,90.24,84.07,88.25999999999999,1
6,Mumbai,Aurangabad,272043886,Tilak Pune College of Commerce,Science,A,Semi-English,Arts,81834,Open,81.58,78.69,81.26,73.30000000000001,71.78,,78.16000000000001,73.27000000000001,76.04,77.69,78.34,3
7,Pune,Nagpur,272061798,Dr. Dadar College of Arts & Science,Science,A,English,General,73553,Open,60.43,58.07,,,55.52,51.84,58.26,,57.03,50.99,56.54,1
8,Mumbai,Pune,272072852,Smt. Dadar Junior College,Arts,U,Marathi,Science,89266,Reserved,80.9,87.94,82.75,83.69,86.56,,81.32000000000001,90.39,82.57000000000001,83.36,85.89,1
9,Pune,Nashik,272029836,Gokhale Thane College of Arts & Science,Commerce,U,Marathi,Science,37265,Open,95.89,91.0,90.28999999999999,96.38,,,92.19999999999999,,98.6,94.67999999999999,98.28,2
10,Pune,Nashik,272079102,N.S. Mulund College of Commerce,Commerce,U,Marathi,Arts,10563,Open,88.92999999999999,83.85,88.32,90.32,86.94,87.24,89.39,,90.05999999999999,90.25999999999999,94.78,1
11,Nagpur,Amravati,272068349,Tilak Dadar College of Arts & Science,Science,G,Semi-English,Arts,36528,Reserved,54.82,55.74,,55.040000000000006,,55.260000000000005,59.010000000000005,,61.85,61.910000000000004,61.17,1
12,Mumbai,Nashik,272088897,Smt. Thane College of Arts & Science,Arts,G,Marathi,General,10846,Open,75.13,71.8,,69.2,77.33,,74.47,71.93,71.7,73.91,76.32,2
13,Thane,Nashik,272085464,Pt. Ghatkopar College of Arts & Science,Arts,U,Semi-English,Commerce,29873,Open,87.53,85.66,85.16,84.59,,88.17,85.13,91.06,88.04,89.95,92.34,3
14,Thane,Amravati,272018932,K.C. Borivali Junior College,Science,A,English,General,77559,Open,71.93,75.27000000000001,,69.28,,,70.2,71.8,74.05,72.65,77.25,1
15,Pune,Konkan,272065694,Tilak Ghatkopar Institute,Science,G,Marathi,General,54691,Reserved,57.69,59.05,52.099999999999994,54.3,56.9,,60.03,60.379999999999995,59.059999999999995,52.86,59.83,3
16,Pune,Aurangabad,272012890,Elphinstone Dadar College of Commerce,Science,G,English,General,36805,Open,57.61,55.57,,67.05,,,66.15,,64.39,58.730000000000004,64.01,3
17,Nagpur,Nashik,272091689,Elphinstone Andheri College of Arts & Science,Science,A,English,Commerce,30655,Open,83.81,80.66,81.66,80.11,85.28,,77.88,77.22,84.14,76.46,83.22,2
18,Mumbai,Amravati,272018311,Elphinstone Borivali Vidyalaya,Commerce,G,English,General,70558,Open,82.77000000000001,88.16000000000001,,90.22000000000001,86.87,81.93,90.62,83.04,82.45,87.26,89.28,2
19,Pune,Pune,272021689,Dr. Bhandup College of Arts & Science,Commerce,A,English,General,33431,Open,93.72,93.19,86.01,86.05,89.17,91.01,89.55,90.6,90.7,89.06,95.28,1
20,Thane,Pune,272049308,Wilson Borivali College of Commerce,Science,U,English,General,72782,Open,63.06,61.76,,,57.04,60.13,59.59,65.6,60.05,61.38,64.34,1
21,Mumbai,Nagpur,272019680,Elphinstone Mulund Junior College,Commerce,A,English,Science,60364,Open,76.22,68.73,,68.49000000000001,71.18,76.14,77.2,68.69,72.49000000000001,74.14,76.48,1
22,Pune,Nashik,272038108,Elphinstone Thane College of Commerce,Science,U,English,Commerce,66360,Open,68.57,65.2,63.4,64.01,,67.69,68.73,,72.01,65.19,70.34,1
23,Mumbai,Aurangabad,272024804,Wilson Pune Junior College,Science,G,Semi-English,Science,87663,Reserved,71.54,73.3,,69.61,72.49000000000001,,67.37,72.11,70.81,65.64,74.94,1
24,Nagpur,Amravati,272086873,Elphinstone Thane College of Commerce,Science,A,English,Science,83423,Open,86.78,82.81,,,83.82000000000001,,86.24000000000001,81.33,82.61,83.31,85.88,1
25,Thane,Nagpur,272042543,Vivekanand Andheri College of Commerce,Commerce,G,Marathi,Arts,94849,Open,76.56,79.92,,74.94,78.33,77.41,82.28,81.79,77.66,79.82,81.87,2
26,Mumbai,Nagpur,272056890,R.D. Thane Junior College,Arts,U,English,General,39095,Reserved,71.81,68.97,,73.77000000000001,69.88000000000001,73.53,72.19,76.43,70.72,78.7,77.85000000000001,2
27,Thane,Amravati,272096662,N.S. Pune Junior College,Science,U,Semi-English,Science,43429,Reserved,81.74000000000001,74.64,73.32000000000001,,81.07000000000001,,73.47,80.95,74.81,78.38000000000001,79.61,3
28,Pune,Amravati,272088602,N.S. Mulund Junior College,Commerce,A,Semi-English,General,51504,Open,79.81,70.97,79.83,,75.06,81.07,78.51,79.81,74.52,76.23,79.88,1
29,Nashik,Amravati,272093898,Smt. Mulund College of Commerce,Commerce,A,Marathi,General,19126,Reserved,70.44000000000001,69.33000000000001,74.68,,,74.54,73.4,73.4,74.88000000000001,77.44000000000001,76.7,1
30,Mumbai,Amravati,272031396,Elphinstone Mulund Institute,Science,G,Marathi,General,93620,Open,74.94999999999999,74.61999999999999,75.03999999999999,,,,73.58,73.49,81.24,74.97999999999999,81.83,2
31,Thane,Aurangabad,272036813,Pt. Pune College of Arts & Science,Commerce,U,English,Science,58624,Open,64.75,55.18,,56.63,63.82,57.8,65.81,59.96,65.72,64.17,66.12,1
32,Mumbai,Amravati,272063396,Gokhale Bhandup College of Arts & Science,Science,A,Semi-English,Arts,18025,Reserved,56.23,59.769999999999996,53.169999999999995,56.419999999999995,56.41,58.69,55.419999999999995,,59.07,54.809999999999995,59.809999999999995,3
33,Pune,Aurangabad,272024150,Pt. Pune College of Commerce,Science,U,Semi-English,Commerce,31575,Reserved,63.190000000000005,64.64,,64.04,68.11,62.53000000000001,61.830000000000005,66.02000000000001,65.58000000000001,61.14000000000001,66.21000000000001,2
34,Pune,Aurangabad,272040493,S.M. Pune Vidyalaya,Arts,G,Semi-English,Arts,51934,Open,73.67,77.29,76.11,77.31,77.0,77.92,82.58,,73.96000000000001,75.37,80.42,2
35,Thane,Aurangabad,272037963,Wilson Pune Vidyalaya,Arts,A,Marathi,General,26486,Reserved,67.56,72.51,,69.26,,,68.58,74.25,73.02,69.26,74.91,1
36,Nagpur,Pune,272072273,Rajmata Mulund Junior College,Arts,A,English,Arts,77876,Reserved,81.46000000000001,77.67,83.49000000000001,83.49000000000001,86.79,83.14,81.96000000000001,85.36,85.73,84.37,84.83,1
37,Mumbai,Konkan,272063429,Vivekanand Kalwa Institute,Science,U,Semi-English,Arts,58577,Reserved,87.09,79.22999999999999,82.28,87.03,90.08,,81.36999999999999,88.36,84.77,83.38,87.97999999999999,2
38,Mumbai,Nagpur,272010055,R.D. Dadar Vidyalaya,Science,A,English,Arts,49298,Reserved,62.55,64.6,64.92999999999999,,,65.47999999999999,70.91,64.08,62.269999999999996,71.28999999999999,67.97,1
39,Pune,Nashik,272054791,Tilak Borivali College of Commerce,Commerce,A,Marathi,Commerce,65898,Reserved,55.99,53.1,58.82,,56.79,,57.980000000000004,,57.76,56.68,62.0,1
40,Mumbai,Pune,272034455,Chhatrapati Airoli Institute,Commerce,U,English,Arts,23958,Reserved,81.67,75.93,82.26,75.52000000000001,78.88000000000001,82.96000000000001,82.10000000000001,,76.45,74.12,79.9,2
41,Thane,Konkan,272042587,K.C. Ghatkopar Institute,Science,G,Semi-English,Commerce,41267,Reserved,63.550000000000004,56.1,,64.84,,57.82,55.74,64.3,56.34,61.32,64.02,1
42,Nashik,Nagpur,272015739,Shree Mulund College of Arts & Science,Commerce,A,English,Science,10579,Open,72.7,63.06999999999999,70.46,69.06,66.89,69.74,72.59,72.13,71.03,68.07,73.53,3
43,Pune,Pune,272043359,Smt. Andheri College of Commerce,Science,A,English,Arts,81351,Open,89.21,88.74,87.03999999999999,83.05,85.14999999999999,,86.06,,90.92999999999999,86.6,90.82,1
44,Nashik,Nagpur,272052102,Tilak Andheri Institute,Arts,G,Marathi,General,71225,Open,75.44,75.54,78.28,73.87,76.5,82.94,82.32,,74.6,77.98,81.77,1
45,Mumbai,Aurangabad,272082914,K.C. Dadar Institute,Science,A,Marathi,Science,34961,Reserved,82.24,83.01,82.08,89.67,85.26,81.9,88.29,86.42,84.46,84.22,86.84,1
46,Nagpur,Aurangabad,272076983,Wilson Borivali College of Arts & Science,Commerce,U,Marathi,Commerce,11003,Open,76.18,74.13000000000001,77.9,84.76,83.84,77.26,78.36,,77.26,77.08,80.09,1
47,Thane,Amravati,272022372,R.D. Andheri Vidyalaya,Science,A,English,Commerce,80145,Open,73.88,63.81,71.67,74.42999999999999,74.13,71.67,66.52,67.52,71.61,73.96,70.57,1
48,Mumbai,Aurangabad,272062508,N.S. Dadar Vidyalaya,Commerce,A,English,Arts,83964,Open,73.41,69.41,74.24,76.85,73.58,73.6,73.86999999999999,,69.72,72.94999999999999,75.74,1
49,Thane,Pune,272053574,Pt. Thane College of Arts & Science,Commerce,U,Marathi,Commerce,71853,Reserved,93.25,89.35000000000001,,,94.81,91.5,95.83000000000001,,91.22000000000001,99.32000000000001,98.0,1
50,Mumbai,Nagpur,272012874,Pt. Thane College of Arts & Science,Science,U,Semi-English,Arts,26392,Reserved,67.41,68.11,69.7,71.32000000000001,75.64,,69.29,70.16000000000001,69.67,67.08,74.79,1
51,Mumbai,Nashik,272031702,Smt. Dadar Institute,Arts,U,Semi-English,General,11045,Reserved,62.019999999999996,53.62,,61.97,,61.96,54.87,,54.989999999999995,60.14,60.08,3
52,Mumbai,Nagpur,272057227,N.S. Ghatkopar Vidyalaya,Arts,U,English,General,93743,Reserved,63.029999999999994,66.85,67.08,62.11,,67.22,60.91,64.52,67.44,62.16,67.67,3
53,Pune,Aurangabad,272046492,Shree Airoli Institute,Arts,U,Semi-English,Science,69857,Reserved,59.599999999999994,59.4,,,68.78999999999999,69.27,64.92,68.92999999999999,67.75999999999999,64.78,65.89,1
54,Nashik,Nagpur,272049595,Pt. Kalwa College of Commerce,Arts,U,English,Commerce,39328,Reserved,63.760000000000005,67.06,71.68,67.77000000000001,70.76,,66.62,,62.970000000000006,62.870000000000005,70.56,1
55,Nagpur,Konkan,272074958,R.D. Kalwa College of Arts & Science,Commerce,U,Marathi,General,82819,Open,54.18,53.28,57.66,60.66,55.839999999999996,63.12,59.269999999999996,57.14,55.79,53.91,62.92,2
56,Nashik,Nagpur,272028958,Smt. Airoli Vidyalaya,Arts,U,English,Commerce,31878,Reserved,86.99,82.95,83.25,,78.88,81.42,81.0,,85.2,83.16,87.39999999999999,3
57,Nashik,Pune,272044364,Vivekanand Andheri College of Commerce,Science,A,English,General,73410,Open,86.16000000000001,87.26,,,,86.39,92.85000000000001,85.05000000000001,90.10000000000001,90.99000000000001,90.28,3
58,Thane,Konkan,272026327,Dr. Kalwa Junior College,Science,A,Marathi,Science,72274,Reserved,54.97,54.44,63.62,59.11,61.78,,59.6,,61.58,59.11,64.1,1
59,Pune,Amravati,272090777,Chhatrapati Dadar Vidyalaya,Science,U,Marathi,Arts,71491,Reserved,66.76,56.66,63.14,59.339999999999996,,58.839999999999996,59.75,60.76,58.379999999999995,57.11,65.67999999999999,2
60,Pune,Amravati,272022761,S.M. Mulund College of Arts & Science,Science,A,English,Arts,69753,Open,80.08000000000001,69.82000000000001,78.98,73.60000000000001,74.73,75.25,71.72,76.94000000000001,80.92,71.60000000000001,78.46000000000001,2
61,Mumbai,Nagpur,272066219,R.D. Borivali Junior College,Science,U,English,Commerce,25198,Reserved,60.83,55.26,53.46,52.43,61.1,,55.14,,52.56,57.94,58.21,3
62,Nashik,Nashik,272051665,Tilak Airoli Institute,Science,G,English,General,25842,Open,77.57000000000001,77.3,,77.34,,86.03,78.12,82.53,84.4,81.10000000000001,84.38,1
63,Nagpur,Pune,272095234,Dr. Dadar College of Arts & Science,Arts,U,Marathi,Science,75701,Open,75.99000000000001,65.59,76.34,73.37,76.7,,70.64,73.47,75.05000000000001,72.35000000000001,74.87,2
64,Thane,Nashik,272014137,Tilak Kalwa Junior College,Science,A,English,Science,48337,Open,73.60000000000001,72.29,76.8,71.31,71.49000000000001,73.92,72.08,,71.48,73.55,75.60000000000001,1
65,Pune,Konkan,272035329,Tilak Pune Institute,Science,G,English,Arts,28377,Open,75.58999999999999,71.64,,,68.0,,69.97999999999999,73.83999999999999,74.25,70.32,75.63,1
66,Mumbai,Nashik,272047899,Pt. Airoli Junior College,Commerce,U,Marathi,General,51817,Open,58.64,49.78,55.69,59.58,59.85,59.15,54.72,,59.980000000000004,55.76,57.89,2
67,Nagpur,Konkan,272045861,Smt. Airoli Junior College,Science,A,Marathi,Science,26812,Open,69.12,69.26,69.23,74.35000000000001,,77.0,69.35000000000001,,74.71000000000001,74.74000000000001,74.78,1
68,Nashik,Nashik,272013703,S.M. Ghatkopar College of Commerce,Arts,G,Marathi,General,73010,Reserved,53.27,58.67,,59.43,56.01,55.46,55.79,56.410000000000004,51.4,60.1,57.03,2
69,Nagpur,Amravati,272084346,S.M. Borivali Junior College,Science,G,Marathi,Commerce,95520,Reserved,72.34,66.8,72.28999999999999,69.63,69.17,67.24,64.44,71.61999999999999,66.25999999999999,64.75,67.97999999999999,2
70,Pune,Pune,272064577,Vivekanand Bhandup Institute,Arts,G,Semi-English,Science,76054,Open,81.91,74.32000000000001,,76.84,73.81,81.54,77.84,74.17,81.72,73.97,82.69,3
71,Thane,Nashik,272062699,R.D. Mulund Institute,Arts,G,Semi-English,Commerce,61109,Reserved,66.37,66.39,68.05000000000001,,64.33000000000001,,67.98,70.5,66.95,69.37,70.84,1
72,Nashik,Nagpur,272018281,Smt. Dadar College of Commerce,Science,A,Semi-English,Arts,36007,Reserved,59.22,57.449999999999996,61.33,54.54,61.36,58.76,56.22,62.54,58.349999999999994,58.04,62.779999999999994,1
73,Thane,Konkan,272071609,Shree Borivali Junior College,Science,U,Marathi,Arts,10143,Open,76.62,73.07000000000001,,76.72,75.77,,72.49,76.15,79.19,70.59,76.76,1
74,Nagpur,Nagpur,272073470,Smt. Borivali College of Arts & Science,Arts,A,English,General,88976,Open,79.81,80.08999999999999,83.66,86.05,81.31,86.69999999999999,81.36999999999999,,83.32,84.94,83.88,2
75,Nagpur,Pune,272018563,R.D. Mulund Junior College,Commerce,A,Semi-English,Commerce,18058,Open,63.4,62.379999999999995,65.21000000000001,63.7,67.37,66.06,67.49000000000001,,64.60000000000001,58.660000000000004,64.96000000000001,2
76,Mumbai,Nagpur,272077605,Dr. Pune Institute,Commerce,U,English,Arts,11129,Open,74.30000000000001,69.98,75.96000000000001,,,70.34,75.60000000000001,,71.28,75.81,79.48,1
77,Nashik,Amravati,272026616,S.M. Pune Institute,Arts,A,English,Arts,68010,Open,90.71,88.94,82.61,87.33999999999999,86.74,91.30999999999999,89.64,,88.85,82.72999999999999,89.64,2
78,Nagpur,Amravati,272043907,Smt. Kalwa College of Commerce,Science,A,English,Science,20871,Open,82.7,82.13000000000001,,79.99000000000001,80.84,85.52,80.81,,85.46000000000001,86.02000000000001,85.51,2
79,Pune,Aurangabad,272087928,Elphinstone Borivali Institute,Science,A,English,Science,29192,Open,65.52,60.85,,64.64,60.0,64.19,56.67,59.86,64.75,63.9,63.85,1
80,Pune,Pune,272080548,Gokhale Pune College of Commerce,Science,A,Semi-English,Science,19592,Open,67.85000000000001,69.02000000000001,71.41,,67.74000000000001,71.91,65.14,,71.0,71.22,70.9,2
81,Thane,Nashik,272085135,Gokhale Ghatkopar College of Arts & Science,Arts,G,Marathi,Science,16298,Open,94.03,87.04,,92.37,94.49,97.54,92.79,93.85,93.17,94.04,94.69,2
82,Pune,Amravati,272081646,K.C. Dadar Institute,Commerce,U,Marathi,General,28554,Open,65.55,65.24,,63.97,65.45,61.62,62.8,64.12,60.13,61.31,63.910000000000004,3
83,Nagpur,Nashik,272092639,Smt. Airoli College of Commerce,Science,G,Marathi,Commerce,46524,Reserved,78.13,81.05,,,76.88,,78.63,,84.02,80.28,80.9,2
84,Pune,Nashik,272015482,Rajmata Borivali Junior College,Science,A,English,General,28456,Open,96.13,96.47999999999999,,95.27,98.94999999999999,98.16,95.52,98.66999999999999,95.91999999999999,96.6,94.44,1
85,Nashik,Konkan,272081657,Chhatrapati Bhandup Vidyalaya,Science,G,English,Science,35357,Reserved,59.39,52.65,,,53.65,,57.44,,59.03,58.73,58.51,2
86,Thane,Nagpur,272080915,Wilson Bhandup Institute,Science,A,Marathi,Commerce,48692,Open,87.28,87.86,,86.37,88.63000000000001,,93.37,,91.58,89.75,93.23,2
87,Nashik,Nashik,272010373,Elphinstone Airoli College of Commerce,Commerce,A,Marathi,Arts,98491,Reserved,63.82,63.08,,60.61,61.28,64.82000000000001,62.57,,59.050000000000004,62.830000000000005,68.45,1
88,Nagpur,Aurangabad,272062521,Vivekanand Ghatkopar College of Commerce,Commerce,A,English,Science,48045,Reserved,61.66,68.37,,65.79,64.36,63.28,68.67,68.99,60.8,66.95,68.89,3
89,Nagpur,Pune,272070519,Wilson Andheri College of Commerce,Arts,G,Marathi,Commerce,74075,Reserved,70.47,64.23,,62.46,65.83,67.65,70.57000000000001,71.34,69.46,65.09,70.08,1
90,Pune,Pune,272082240,Elphinstone Pune Vidyalaya,Commerce,G,English,Commerce,38391,Open,78.3,72.03,,79.42,82.66,,80.32,74.33,77.89,76.89,79.67999999999999,2
91,Mumbai,Konkan,272029065,Gokhale Ghatkopar College of Arts & Science,Science,U,English,Science,98841,Open,87.04,88.30000000000001,85.95,82.86000000000001,87.49000000000001,82.87,87.03,84.96000000000001,85.08000000000001,89.69000000000001,88.69000000000001,3
92,Mumbai,Aurangabad,272022700,Pt. Thane College of Arts & Science,Commerce,G,English,General,16793,Open,83.58,80.79,79.09,78.62,78.7,84.97,80.79,,83.83,81.92,82.92,2
93,Nagpur,Nagpur,272045585,N.S. Borivali Institute,Arts,U,English,Science,55717,Reserved,90.19999999999999,95.75,94.49,89.11,,91.28999999999999,89.46,,88.94999999999999,94.08,96.38,2
94,Nagpur,Aurangabad,272020435,N.S. Kalwa College of Commerce,Commerce,A,Semi-English,Commerce,96330,Open,83.86,79.55999999999999,79.89,87.28999999999999,80.27999999999999,,88.67999999999999,83.5,85.33999999999999,80.52,84.8,1
95,Thane,Pune,272068045,S.M. Andheri Junior College,Arts,G,Semi-English,General,73363,Open,74.50999999999999,73.91,80.42999999999999,83.0,,80.64,79.25999999999999,74.46,79.05,79.96,80.81,1
96,Nagpur,Aurangabad,272045503,Smt. Bhandup Junior College,Commerce,G,English,General,96797,Reserved,82.99000000000001,75.76,79.41,82.45,,76.08,73.74000000000001,80.09,77.51,76.14,82.28,2
97,Nagpur,Nagpur,272064224,Shree Pune Junior College,Commerce,U,Marathi,General,68593,Reserved,69.45,68.35000000000001,66.60000000000001,68.55000000000001,61.85000000000001,,63.93000000000001,,69.66000000000001,67.84,66.49000000000001,2
98,Thane,Amravati,272077760,Elphinstone Bhandup College of Commerce,Commerce,A,Marathi,General,71558,Open,78.53,75.46,74.24,,79.64999999999999,78.19,74.28,,77.47999999999999,77.21,81.89,1
99,Nashik,Nashik,272023708,Gokhale Pune College of Commerce,Science,G,English,Commerce,22312,Open,79.92,71.83999999999999,,,,,76.41,78.50999999999999,75.78,77.94999999999999,80.16,3
100,Nashik,Nashik,272039684,K.C. Ghatkopar Vidyalaya,Science,U,English,Commerce,91139,Reserved,68.06,70.63,71.66,67.27,74.23,76.42,72.78999999999999,,68.28,69.1,76.66,1
101,Thane,Pune,272052788,Rajmata Ghatkopar Junior College,Science,U,Semi-English,Science,65993,Open,67.32000000000001,65.45,68.42,,71.82000000000001,71.95,65.11,66.58,68.63,67.95,70.29,2
102,Thane,Pune,272091598,N.S. Andheri College of Commerce,Commerce,A,Marathi,Commerce,25769,Open,61.78,52.77,53.34,,54.01,57.26,61.89,62.22,57.63,61.89,62.78,2
103,Nashik,Nagpur,272034210,Shree Kalwa College of Arts & Science,Science,A,Semi-English,Science,98847,Reserved,86.60000000000001,89.94,91.34,83.65,88.01,83.01,91.59,85.22,89.02,90.69,91.27,2
104,Nashik,Aurangabad,272061710,R.D. Mulund Junior College,Commerce,G,English,Arts,85972,Reserved,74.86,73.74,78.31,75.89999999999999,80.19,70.75999999999999,74.35,,76.89,78.45,79.92,2
105,Nashik,Nagpur,272092128,Shree Pune Junior College,Arts,G,Marathi,Commerce,86357,Open,66.19,69.22,,64.91,,,68.44,66.63,70.27,69.95,71.72,1
106,Nashik,Konkan,272059352,Rajmata Mulund College of Arts & Science,Science,A,English,Science,92692,Open,81.82000000000001,75.12,84.39,80.88000000000001,77.7,82.77000000000001,81.9,77.80000000000001,85.73,81.79,84.29,3
107,Pune,Pune,272044737,Smt. Dadar College of Commerce,Commerce,U,English,General,72224,Reserved,67.79,67.34,66.08,65.82000000000001,,70.9,71.9,67.02,70.21000000000001,66.2,67.77,2
108,Thane,Pune,272081554,Smt. Dadar Junior College,Arts,A,Marathi,General,24199,Reserved,73.80999999999999,71.05999999999999,75.77,,66.96,,71.58,69.44,76.08999999999999,70.1,73.25,2
109,Mumbai,Pune,272065336,Dr. Kalwa Vidyalaya,Science,A,English,Commerce,59309,Open,63.419999999999995,68.03999999999999,,63.44,65.03999999999999,69.55,64.82,61.5,66.8,67.98,66.28999999999999,2
110,Pune,Nagpur,272090801,Dr. Andheri Institute,Science,A,English,Arts,57810,Open,73.99,78.03999999999999,79.87,76.53,73.72,79.94,74.46,74.52,75.34,77.86,75.63,1
111,Mumbai,Nagpur,272096922,Shree Pune College of Arts & Science,Science,A,English,General,89942,Reserved,77.27,77.34,84.19,84.96,78.61,86.17,78.8,,84.74,79.57,84.67,3
112,Mumbai,Aurangabad,272080569,Chhatrapati Bhandup Vidyalaya,Science,A,English,Science,66951,Open,72.44000000000001,79.74000000000001,75.61,73.84,77.23,79.54,72.96000000000001,79.7,72.95,79.27000000000001,80.4,2
113,Nagpur,Amravati,272090924,Pt. Mulund College of Arts & Science,Arts,A,Marathi,Science,55857,Reserved,90.36999999999999,92.89,91.21,,91.05999999999999,,89.6,,88.30999999999999,92.71,91.44999999999999,2
114,Thane,Pune,272042633,Pt. Thane Institute,Arts,G,English,General,62266,Open,80.86,78.91,79.53,75.15,83.49,75.5,81.67999999999999,85.05,77.02,82.56,81.79,3
115,Pune,Amravati,272086253,Tilak Ghatkopar Institute,Commerce,U,English,General,62774,Reserved,77.93,70.2,80.18,76.07000000000001,73.98,76.18,76.17,75.72,80.14,74.02000000000001,78.92,3
116,Thane,Nagpur,272061881,Gokhale Pune College of Commerce,Arts,G,English,General,69671,Reserved,65.98,60.15,63.46,,64.7,63.99,61.83,64.02,61.980000000000004,60.42,65.66,1
117,Nashik,Aurangabad,272091073,Tilak Borivali Junior College,Arts,A,English,Arts,63309,Reserved,76.17999999999999,68.13,79.07,79.35,70.39,79.56,72.49,73.52,79.53999999999999,76.57,78.31,3
118,Thane,Nagpur,272082030,Dr. Kalwa Vidyalaya,Science,A,Marathi,Arts,48796,Reserved,84.88000000000001,80.23,,,83.11000000000001,77.33000000000001,76.94000000000001,85.26,78.88000000000001,85.24000000000001,85.48,1
119,Mumbai,Konkan,272067717,N.S. Ghatkopar College of Commerce,Arts,U,English,Commerce,15333,Reserved,85.58,89.8,87.77999999999999,,92.94999999999999,89.1,91.47999999999999,,85.25,87.77,88.83999999999999,2
120,Nashik,Nashik,272050844,Smt. Airoli College of Arts & Science,Commerce,U,Marathi,Science,89594,Reserved,92.53999999999999,90.67,94.44,91.75,90.00999999999999,89.08,90.00999999999999,94.33999999999999,96.78999999999999,89.61999999999999,94.64,1
121,Thane,Nashik,272076417,Rajmata Bhandup College of Arts & Science,Arts,G,English,Commerce,89875,Open,64.6,59.92,68.64,,66.82,70.4,64.92999999999999,69.25,61.489999999999995,66.08,66.72,1
122,Thane,Nagpur,272059959,R.D. Mulund Junior College,Arts,A,English,Commerce,99294,Reserved,82.27,74.96,,,80.83999999999999,,85.31,82.89999999999999,80.92,75.55,82.14999999999999,1
123,Mumbai,Nashik,272084346,Wilson Bhandup Vidyalaya,Science,G,Semi-English,Science,59496,Open,85.75,83.8,82.52,,86.92999999999999,91.63,89.28,90.32,84.21,86.72,90.71,1
124,Nashik,Nashik,272050940,Pt. Andheri Vidyalaya,Science,G,Marathi,Science,78683,Open,92.36,85.46,93.13,92.72,93.14,85.63,84.94,,90.17999999999999,92.36,89.7,1
125,Mumbai,Aurangabad,272021835,Wilson Borivali Vidyalaya,Science,U,English,Science,40740,Reserved,93.89,92.6,89.45,92.6,91.83,94.28999999999999,87.42,94.14,89.22,91.42,95.86,2
126,Thane,Nashik,272052903,Rajmata Borivali Vidyalaya,Commerce,G,Semi-English,Commerce,35529,Reserved,92.51,87.9,94.71,89.12,90.56,92.59,91.38,97.15,90.33,96.46000000000001,92.69,1
127,Pune,Aurangabad,272054601,Rajmata Pune College of Arts & Science,Arts,G,English,Arts,47692,Open,81.88,82.35000000000001,,83.77,81.77,,88.10000000000001,86.69,84.52,85.25,87.29,2
128,Pune,Konkan,272087116,Gokhale Borivali College of Commerce,Arts,G,Semi-English,Science,44867,Reserved,59.79,58.98,53.73,62.05,,,61.019999999999996,55.57,58.43,61.44,61.6,1
129,Nagpur,Pune,272044238,K.C. Ghatkopar Institute,Science,A,Marathi,General,12107,Reserved,66.88,59.25,64.59,59.97,58.22,64.62,66.2,,61.76,65.37,64.32000000000001,1
130,Pune,Pune,272051098,S.M. Pune Vidyalaya,Commerce,U,Marathi,Arts,12289,Open,76.95,69.84,,,77.73,,75.37,,73.76,74.77,77.14,2
131,Nashik,Pune,272096495,S.M. Airoli Vidyalaya,Commerce,G,Semi-English,Arts,90608,Reserved,66.98,57.72,64.36,63.85,,63.48,61.04,59.74,64.46,68.46,68.31,1
132,Nagpur,Aurangabad,272016461,Dr. Andheri College of Arts & Science,Science,A,English,Arts,58056,Reserved,84.96,79.72,88.24,,81.12,80.09,80.48,,80.8,83.73,89.06,1
133,Nashik,Aurangabad,272024502,Gokhale Thane College of Arts & Science,Science,A,Marathi,Arts,29967,Reserved,81.98,87.87,,81.73,81.15,88.2,89.92,87.16000000000001,88.24000000000001,90.15,87.95,3
134,Pune,Aurangabad,272026268,N.S. Dadar Institute,Science,A,English,Science,31165,Reserved,86.31,90.45,86.15,92.44000000000001,88.74000000000001,,86.89,93.44,84.30000000000001,86.48,91.99000000000001,1
135,Pune,Konkan,272090438,Smt. Dadar Vidyalaya,Arts,A,English,Commerce,46903,Reserved,70.47999999999999,69.83,71.09,69.16,74.75999999999999,75.41,72.36999999999999,75.72,66.64,69.35,74.35,2
136,Thane,Amravati,272027664,Elphinstone Andheri College of Arts & Science,Science,A,English,General,28141,Open,87.31,86.5,87.24,84.45,94.14999999999999,,86.64999999999999,88.07,88.84,86.35,89.85,1
137,Nashik,Aurangabad,272088526,K.C. Thane College of Commerce,Commerce,A,English,General,98403,Reserved,88.82000000000001,92.78,,87.38,86.93,,94.62,,89.61,93.78,93.26,3
138,Mumbai,Aurangabad,272099066,R.D. Andheri College of Arts & Science,Commerce,U,Marathi,Commerce,59789,Open,78.67999999999999,74.54,82.0,,78.9,80.54,76.61,76.05,76.35,79.51,82.19,1
139,Thane,Pune,272033669,Pt. Airoli College of Arts & Science,Science,G,Marathi,Commerce,99410,Reserved,88.28,89.47,85.60000000000001,,87.91,88.69,90.78,91.19,91.43,90.44,92.31,3
140,Nashik,Nagpur,272017679,S.M. Ghatkopar College of Commerce,Arts,G,Marathi,Arts,57779,Open,69.19000000000001,59.900000000000006,65.67,68.16000000000001,63.00000000000001,64.79,62.45000000000001,63.550000000000004,69.47000000000001,69.93,68.98,1
141,Nagpur,Nashik,272072620,Dr. Dadar College of Arts & Science,Arts,U,English,Science,35726,Reserved,67.44,67.87,66.48,70.31,69.77000000000001,68.73,68.48,,71.4,65.41000000000001,71.45,1
142,Nashik,Nashik,272057358,S.M. Ghatkopar College of Commerce,Science,U,English,General,70148,Reserved,60.03,62.34,,,65.94,,66.04,62.43,58.59,60.730000000000004,63.11,2
143,Nagpur,Konkan,272042295,Gokhale Thane College of Arts & Science,Commerce,U,Semi-English,Arts,91807,Reserved,85.31,80.76,81.96,,78.37,,82.5,,82.81,85.53999999999999,84.48,2
144,Nagpur,Nashik,272060002,Dr. Dadar Institute,Science,A,English,Arts,36252,Reserved,65.46000000000001,65.24000000000001,,69.27000000000001,,59.53,66.82000000000001,68.43,63.150000000000006,68.06,65.62,1
145,Pune,Amravati,272015831,Pt. Andheri College of Commerce,Science,A,Marathi,Science,33894,Open,67.54,59.400000000000006,65.99000000000001,,65.85000000000001,61.980000000000004,62.720000000000006,,65.86,68.48,65.13000000000001,1
146,Mumbai,Pune,272056040,Tilak Mulund College of Arts & Science,Science,A,Marathi,General,26670,Open,65.34,62.56,,57.29,65.97,58.15,58.7,63.89,58.56,62.35,63.79,3
147,Nashik,Konkan,272024862,Rajmata Mulund Junior College,Commerce,G,Marathi,Commerce,21566,Reserved,54.79,57.2,60.5,54.99,51.64,57.21,59.32,54.91,59.42,53.15,60.82,1
148,Mumbai,Nashik,272019225,Smt. Bhandup Junior College,Commerce,U,Marathi,Arts,85950,Open,85.21,87.58999999999999,84.5,,87.96,,88.86,,88.72,88.97999999999999,89.78999999999999,2
149,Nagpur,Nashik,272072191,Tilak Kalwa Junior College,Science,A,Semi-English,General,19953,Open,67.53,69.24,66.45,,63.910000000000004,71.61,71.23,68.67,72.24000000000001,67.24,67.81,2
150,Pune,Nagpur,272020303,Smt. Borivali College of Arts & Science,Science,U,English,General,43865,Open,78.01,75.92,76.86,,73.84,76.22,73.44,77.64,78.92,77.67,78.13,2
151,Mumbai,Pune,272065375,R.D. Andheri College of Arts & Science,Arts,A,Semi-English,Arts,41965,Open,94.73,91.04,97.2,99.5,,,93.10000000000001,,99.53,99.52000000000001,94.77000000000001,1
152,Thane,Konkan,272099491,Shree Bhandup Institute,Science,G,English,General,91758,Open,74.0,65.03,68.42999999999999,,71.88,,74.53999999999999,74.92999999999999,72.05,76.44,72.63,2
153,Nagpur,Pune,272018109,R.D. Thane College of Arts & Science,Science,A,English,Science,11741,Open,92.87,88.56,95.96000000000001,88.55,89.96000000000001,90.53,91.03,95.62,89.85000000000001,89.47,92.89,1
154,Thane,Konkan,272039762,K.C. Ghatkopar College of Arts & Science,Commerce,G,English,General,70116,Open,62.55,58.269999999999996,,59.489999999999995,65.83,63.86,62.75,68.0,61.37,65.6,66.45,1
155,Mumbai,Nashik,272088119,Elphinstone Bhandup College of Commerce,Arts,U,Marathi,Science,12785,Reserved,68.67,59.059999999999995,70.3,61.93,,65.61,70.61,,63.779999999999994,65.44,65.92,2
156,Mumbai,Pune,272080492,K.C. Airoli College of Arts & Science,Science,A,English,Arts,57427,Reserved,54.17,55.88,52.52,58.32,57.07,,60.79,,52.38,60.1,59.97,3
157,Mumbai,Pune,272082776,Dr. Andheri Institute,Commerce,A,English,General,47291,Open,89.27000000000001,81.84,84.08,,86.35000000000001,84.57000000000001,89.21000000000001,87.52000000000001,90.08,82.92,87.97,1
158,Nashik,Amravati,272061758,K.C. Dadar College of Arts & Science,Arts,U,English,Science,72683,Open,65.63,59.64,61.14,65.48,,65.32,66.17999999999999,64.79,64.24,67.16,67.05,1
159,Nagpur,Nagpur,272037150,Shree Kalwa Institute,Science,U,Semi-English,Science,98049,Open,77.0,75.65,,72.34,,,81.06,,72.68,82.01,80.03,2
160,Nagpur,Pune,272065213,Elphinstone Dadar Vidyalaya,Commerce,U,Semi-English,General,41882,Reserved,80.7,79.03999999999999,83.75,82.82,84.33,82.64999999999999,82.22999999999999,,84.69,82.55,84.32,1
161,Nagpur,Konkan,272051207,R.D. Thane Institute,Science,G,Marathi,Arts,65225,Open,55.41,49.879999999999995,58.489999999999995,56.699999999999996,56.91,58.78,60.47,53.82,58.199999999999996,55.51,58.099999999999994,2
162,Nashik,Amravati,272042578,Rajmata Borivali Vidyalaya,Commerce,U,Marathi,Commerce,16562,Reserved,87.64,84.28,84.74000000000001,,80.55000000000001,,88.89,79.68,85.99000000000001,87.24000000000001,88.34,3
163,Mumbai,Pune,272063843,K.C. Dadar College of Arts & Science,Commerce,U,English,Commerce,24944,Reserved,84.99000000000001,85.66000000000001,,91.24000000000001,89.51,83.11,89.77000000000001,85.41000000000001,85.93,87.69000000000001,90.60000000000001,3
164,Mumbai,Pune,272094884,Dr. Bhandup College of Arts & Science,Commerce,A,English,General,53853,Open,61.0,54.85,57.29,,57.45,52.68,60.27,60.1,53.54,54.09,61.71,1
165,Thane,Amravati,272026484,Dr. Andheri Institute,Science,G,Semi-English,General,74597,Open,87.03,87.88,,,86.72,90.53,87.08,,86.66,95.45,93.32,2
166,Nashik,Nashik,272023108,Gokhale Thane College of Arts & Science,Arts,U,English,Commerce,93956,Reserved,64.73,61.980000000000004,72.39,64.58,68.58,67.68,66.3,71.7,64.58,63.440000000000005,71.57000000000001,3
167,Pune,Pune,272077458,Shree Bhandup Institute,Science,U,English,Arts,86905,Reserved,66.39,66.81,71.75,67.8,63.17,71.07000000000001,64.28,69.42,71.18,64.85000000000001,71.67,1
168,Nashik,Aurangabad,272085925,Tilak Kalwa Institute,Science,U,English,Science,24980,Reserved,61.06,51.19,60.3,,54.01,,53.92,,53.019999999999996,59.31,61.75,2
169,Thane,Nagpur,272044066,Rajmata Borivali Junior College,Science,G,English,Commerce,20828,Open,95.57000000000001,94.85000000000001,97.62,93.63000000000001,,97.71000000000001,92.21000000000001,,88.8,96.56,95.67,1
170,Thane,Nashik,272052946,K.C. Dadar College of Commerce,Commerce,G,English,Arts,53090,Open,93.99000000000001,85.10000000000001,91.75,,,,87.0,89.21000000000001,90.34,93.57000000000001,91.09,1
171,Thane,Pune,272058809,N.S. Mulund College of Commerce,Commerce,A,Marathi,Commerce,14868,Reserved,79.35000000000001,75.04,85.04,82.77000000000001,80.64,,82.64,85.26,77.82000000000001,85.12,84.53,3
172,Mumbai,Nashik,272088576,Pt. Bhandup College of Commerce,Science,A,English,Arts,22606,Open,91.39,83.56,88.77000000000001,,90.21000000000001,,92.25,86.27000000000001,86.46000000000001,93.12,93.84,2
173,Pune,Konkan,272017315,Dr. Mulund College of Commerce,Commerce,A,Marathi,Commerce,15748,Reserved,72.03999999999999,68.78,73.39999999999999,69.36999999999999,,,66.94,,65.99,71.92,74.97,1
174,Thane,Nashik,272059674,Tilak Dadar Institute,Science,G,English,Arts,19075,Reserved,83.76,82.61,,88.64,91.27000000000001,,92.78,90.93,89.29,85.38000000000001,90.58,3
175,Nagpur,Amravati,272073636,Tilak Dadar Institute,Commerce,G,English,Arts,62031,Reserved,84.33,86.28999999999999,,90.44999999999999,89.89999999999999,,86.02999999999999,85.08,87.97,88.61,93.57,2
176,Mumbai,Pune,272011006,Smt. Thane Vidyalaya,Science,A,English,Arts,29843,Open,62.29,63.459999999999994,,61.94,,64.78999999999999,66.97,,61.099999999999994,63.64,66.83,3
177,Pune,Nashik,272016442,Shree Kalwa Institute,Commerce,G,Marathi,Science,64926,Reserved,76.15,80.62,,,77.2,,73.88000000000001,,82.69,75.11,80.63000000000001,1
178,Nagpur,Aurangabad,272013247,Gokhale Dadar College of Commerce,Science,A,English,Arts,11168,Reserved,73.65,70.94000000000001,,77.35000000000001,71.48,75.12,79.2,72.54,76.54,78.46000000000001,76.59,1
179,Pune,Konkan,272087872,Dr. Pune Vidyalaya,Arts,A,Marathi,Commerce,14027,Open,64.66,61.94,,59.3,56.61,61.53,61.35,55.17,64.03,54.98,61.11,1
180,Pune,Konkan,272095991,K.C. Kalwa College of Arts & Science,Science,A,Marathi,Arts,76049,Reserved,82.03999999999999,77.63999999999999,84.71,85.75999999999999,,82.35,83.44999999999999,,76.77,81.17999999999999,83.55,2
181,Nagpur,Nashik,272095370,S.M. Kalwa Vidyalaya,Science,U,Marathi,Arts,14285,Reserved,76.33,80.58,,81.84,74.27,75.48,81.98,78.73,81.21,73.5,82.44,1
182,Nashik,Amravati,272085025,Pt. Pune Institute,Science,G,English,General,27635,Reserved,87.88,81.77,86.98,86.29,90.96,85.58,83.89,,82.32,85.74,88.32,1
183,Pune,Konkan,272049470,Rajmata Andheri Institute,Arts,U,English,Arts,62602,Reserved,75.17,77.51,,,78.35000000000001,75.48,71.24000000000001,75.5,72.37,78.17,79.27000000000001,3
184,Nashik,Nashik,272027810,Dr. Pune College of Commerce,Arts,U,English,Arts,55698,Reserved,78.82,73.77,70.53999999999999,73.17,,79.02,70.28,77.77,78.02,76.87,78.66,3
185,Pune,Nashik,272049152,Chhatrapati Airoli College of Arts & Science,Science,A,Marathi,General,83469,Reserved,62.83,61.49,60.56,59.81,59.85,,55.31,,57.18,61.06,59.96,2
186,Nagpur,Konkan,272079514,Tilak Borivali Junior College,Commerce,U,English,Science,84949,Reserved,82.44,73.14999999999999,,75.24,79.0,74.24,80.97999999999999,77.75,75.13,79.19999999999999,82.78,3
187,Pune,Nashik,272086069,Shree Pune Institute,Arts,G,Semi-English,Arts,37385,Reserved,81.99000000000001,82.02000000000001,88.19000000000001,,,,88.23,87.10000000000001,87.73,89.13000000000001,89.28,3
188,Thane,Nashik,272042796,Dr. Thane Vidyalaya,Commerce,A,Semi-English,General,97742,Reserved,66.80000000000001,65.64,66.71000000000001,67.88000000000001,67.60000000000001,,69.01,,62.56,67.30000000000001,70.2,2
189,Thane,Nagpur,272033452,N.S. Ghatkopar Institute,Commerce,G,English,Arts,44295,Open,85.26,89.27000000000001,85.17,90.53,83.72,86.68,90.51,,86.67,89.98,92.04,2
190,Pune,Aurangabad,272016154,Shree Borivali Junior College,Science,A,English,Science,71436,Open,85.13,82.19999999999999,86.11,81.61999999999999,,,81.94999999999999,,85.64,81.28,88.25999999999999,3
191,Nagpur,Nashik,272048445,N.S. Kalwa College of Commerce,Science,A,Marathi,Commerce,54074,Reserved,90.11,85.75,83.06,,87.62,,84.83,91.28,89.54,86.65,91.16000000000001,2
192,Nagpur,Nagpur,272059327,Chhatrapati Kalwa Vidyalaya,Arts,A,English,Arts,88364,Open,86.35000000000001,80.81,87.17,84.68,,85.12,84.89,80.57000000000001,85.59,89.41000000000001,85.21000000000001,1
193,Mumbai,Nagpur,272059157,Elphinstone Bhandup Junior College,Arts,G,English,Commerce,69731,Open,92.31,86.58,89.67,89.4,93.38,,89.3,95.56,97.36,87.57000000000001,92.82000000000001,1
194,Nagpur,Nashik,272099444,R.D. Thane Junior College,Commerce,G,Semi-English,General,82916,Open,60.26,63.64,61.79,60.019999999999996,,63.589999999999996,67.3,,67.17999999999999,63.44,63.87,2
195,Nashik,Amravati,272045910,K.C. Borivali Vidyalaya,Science,A,English,Arts,36647,Open,57.910000000000004,58.61000000000001,60.52,,59.970000000000006,62.82,64.2,,62.050000000000004,54.900000000000006,62.67,3
196,Pune,Konkan,272082974,S.M. Pune Institute,Science,G,Semi-English,General,38921,Open,60.77,64.01,64.19,,,,61.74,67.22,66.09,60.230000000000004,68.47,2
197,Thane,Nagpur,272090398,Wilson Kalwa College of Arts & Science,Commerce,U,Marathi,Commerce,51765,Reserved,70.0,62.71000000000001,65.9,63.230000000000004,,69.4,65.4,,61.03,61.63,70.66,3
198,Nagpur,Nagpur,272067004,Tilak Borivali Junior College,Arts,A,Marathi,Arts,47882,Reserved,75.64,69.29,75.27000000000001,68.17,67.88000000000001,70.63000000000001,73.14,69.32000000000001,70.88000000000001,69.04,73.84,3
199,Thane,Amravati,272066536,Rajmata Thane Institute,Arts,A,English,Commerce,76532,Reserved,92.28999999999999,88.6,89.06,91.52,87.47999999999999,85.13,92.33,88.85,92.11,88.74,91.67,1
200,Mumbai,Pune,272075208,S.M. Airoli Vidyalaya,Arts,G,English,General,75587,Open,56.550000000000004,56.230000000000004,58.620000000000005,56.81,61.260000000000005,,58.72,,59.97,59.79,58.36,2
201,Pune,Amravati,272063799,N.S. Mulund College of Commerce,Commerce,G,Marathi,Science,37134,Open,73.98,73.96000000000001,81.06,74.4,,80.47,78.79,77.87,72.17,71.75,79.2,1
202,Nagpur,Pune,272016553,Rajmata Thane College of Arts & Science,Science,A,English,Science,56944,Open,85.32000000000001,77.61,,,87.26,79.38000000000001,80.58,,84.73,85.06,84.16000000000001,2
203,Thane,Pune,272052844,Tilak Andheri Institute,Science,U,English,Science,74486,Open,54.730000000000004,56.290000000000006,61.95,,60.77,,64.49000000000001,57.0,59.1,63.45,62.13,3
204,Nagpur,Amravati,272067121,S.M. Airoli College of Arts & Science,Arts,A,English,General,21699,Open,74.84,77.2,76.71,,,,76.37,81.1,78.8,78.83,81.50999999999999,2
205,Mumbai,Aurangabad,272044358,K.C. Kalwa College of Commerce,Commerce,U,English,Science,88659,Reserved,76.80999999999999,69.25999999999999,70.11,,73.74,75.47999999999999,77.69,72.44,70.75999999999999,70.42,76.14999999999999,3
206,Thane,Amravati,272031211,Chhatrapati Bhandup College of Commerce,Science,U,English,Arts,34496,Reserved,68.96,65.00999999999999,64.25,63.03999999999999,61.55,65.97,69.11999999999999,60.629999999999995,64.00999999999999,67.55999999999999,67.75,1
207,Thane,Nagpur,272011881,R.D. Dadar College of Arts & Science,Science,G,Marathi,Science,24129,Open,70.97,61.29,68.82,,,69.17,68.2,,64.34,65.67,67.46,2
208,Pune,Konkan,272050729,Vivekanand Dadar College of Commerce,Commerce,U,English,Commerce,47183,Open,86.28,89.0,84.30000000000001,81.64,86.0,,90.46000000000001,90.77000000000001,85.52000000000001,83.88000000000001,89.55000000000001,1
209,Pune,Amravati,272051254,R.D. Kalwa College of Commerce,Science,A,English,Arts,84770,Open,62.599999999999994,63.28,61.08,,,55.98,56.44,62.14,56.9,63.779999999999994,60.89,2
210,Thane,Aurangabad,272065520,Elphinstone Kalwa College of Arts & Science,Science,U,Marathi,Commerce,62811,Open,72.98,71.9,,75.9,74.35000000000001,,75.62,71.08,76.7,76.13000000000001,78.37,2
211,Pune,Amravati,272057734,Tilak Andheri Junior College,Commerce,A,Semi-English,Commerce,71865,Open,66.67999999999999,63.139999999999986,,,70.36999999999999,70.11,74.13,71.89999999999999,71.66,66.97,73.36,2
212,Thane,Aurangabad,272074229,N.S. Kalwa Junior College,Commerce,G,English,Commerce,84728,Open,62.96,67.09,64.73,,65.92999999999999,64.6,70.24,63.72,65.89,65.2,71.23,1
213,Nashik,Konkan,272068077,R.D. Kalwa College of Arts & Science,Commerce,U,English,Commerce,21965,Reserved,78.64999999999999,80.16999999999999,77.83999999999999,,80.1,81.53999999999999,83.02,,79.91999999999999,79.72999999999999,85.02999999999999,1
214,Nagpur,Nashik,272054553,Wilson Andheri College of Arts & Science,Science,G,Marathi,Arts,43049,Reserved,89.89,85.0,89.94999999999999,96.00999999999999,93.86,94.44999999999999,87.17999999999999,,89.08,93.27999999999999,93.55,2
215,Nashik,Aurangabad,272080453,Elphinstone Borivali Vidyalaya,Commerce,U,Semi-English,General,60384,Reserved,52.52,56.06,59.27,60.6,54.71,,52.19,59.39,58.52,56.92,60.26,2
216,Nashik,Aurangabad,272013825,Rajmata Airoli Vidyalaya,Science,G,Marathi,Arts,41780,Reserved,85.86,77.98,86.82,,82.94,86.17999999999999,86.94,86.89999999999999,88.63,83.82,87.47,2
217,Nagpur,Nagpur,272084869,Rajmata Borivali Vidyalaya,Science,A,Marathi,Science,76238,Reserved,84.72,84.05,82.42999999999999,90.3,,91.80999999999999,89.94999999999999,89.55999999999999,87.61999999999999,89.14999999999999,89.66999999999999,2
218,Thane,Aurangabad,272069063,Shree Airoli College of Commerce,Commerce,A,English,Science,64154,Open,57.15,57.839999999999996,58.36,52.599999999999994,56.5,59.73,61.269999999999996,58.8,61.269999999999996,53.82,58.849999999999994,3
219,Thane,Konkan,272050438,Wilson Airoli Vidyalaya,Commerce,U,Marathi,General,93043,Reserved,95.99000000000001,91.53,87.74000000000001,91.47,90.31,92.76,93.65,87.42,91.88000000000001,96.57000000000001,96.66,3
220,Pune,Pune,272051803,Pt. Andheri Institute,Arts,G,English,Science,60769,Open,85.05,84.62,86.19,,82.74,86.18,80.82,78.2,85.19,83.17999999999999,85.39,1
221,Mumbai,Aurangabad,272038931,K.C. Ghatkopar Vidyalaya,Commerce,A,Marathi,Arts,47176,Reserved,60.68000000000001,67.36,66.43,,,61.14000000000001,68.31,65.05000000000001,68.97,66.95,66.67,1
222,Thane,Konkan,272035203,Pt. Thane Institute,Commerce,A,Marathi,Science,98968,Reserved,68.22,66.05,,71.8,68.08,,72.54,,74.16,70.7,71.12,2
223,Nagpur,Nagpur,272076377,R.D. Pune Vidyalaya,Science,U,Semi-English,Science,41465,Reserved,79.21000000000001,80.41,,81.4,85.45,81.69,77.46000000000001,77.12,79.06,80.28,82.22,1
224,Mumbai,Nagpur,272089771,Rajmata Airoli Vidyalaya,Science,A,English,Commerce,30416,Open,83.58,79.1,87.66,87.50999999999999,83.97,,86.78,,81.71,86.11,86.1,1
225,Nagpur,Nashik,272013786,Elphinstone Thane College of Commerce,Science,A,English,Arts,13007,Open,94.03,84.33999999999999,87.91,,92.07,,90.14,,88.61,94.61,94.16,1
226,Nagpur,Aurangabad,272065725,Pt. Ghatkopar College of Arts & Science,Science,A,Marathi,Commerce,37219,Reserved,80.94,79.89,77.52,,,86.34,80.13,,81.14,82.36999999999999,83.52,1
227,Nagpur,Pune,272027151,Elphinstone Pune Vidyalaya,Arts,G,Marathi,General,22008,Reserved,77.62,74.58000000000001,,78.30000000000001,72.98,,78.84,,73.39,74.18,77.24000000000001,2
228,Mumbai,Konkan,272041787,Elphinstone Airoli College of Commerce,Science,U,Marathi,Arts,74861,Reserved,62.81999999999999,66.02,,68.11,,69.16,68.72,,63.489999999999995,61.949999999999996,66.39999999999999,1
229,Nashik,Nashik,272058434,Elphinstone Kalwa Institute,Arts,G,English,Commerce,28180,Reserved,76.01,67.2,74.35000000000001,72.42,76.44,76.09,76.62,73.24000000000001,76.25,76.17,72.72,1
230,Nagpur,Pune,272043828,Elphinstone Thane Vidyalaya,Commerce,U,English,Arts,96166,Open,59.550000000000004,54.080000000000005,50.88,,52.68,52.0,50.64,52.38,59.32,57.230000000000004,59.230000000000004,3
231,Pune,Nashik,272063010,Elphinstone Bhandup Junior College,Arts,A,Marathi,Science,63433,Open,96.44000000000001,91.5,97.33000000000001,,,,98.21000000000001,97.46000000000001,92.97000000000001,90.42,97.80000000000001,3
232,Thane,Pune,272059972,S.M. Bhandup College of Arts & Science,Commerce,G,English,General,65480,Open,96.67999999999999,88.94999999999999,89.57,91.30999999999999,97.05999999999999,,89.88,92.35,88.71,94.53,96.92999999999999,3
233,Thane,Amravati,272027145,K.C. Borivali Vidyalaya,Commerce,A,Semi-English,Science,57823,Reserved,90.96,91.67,,94.23,,92.02,91.84,,89.21,89.52,92.53999999999999,1
234,Thane,Amravati,272093038,Rajmata Borivali Junior College,Commerce,U,English,Science,29169,Reserved,67.62,60.900000000000006,65.76,69.44000000000001,64.53,,69.7,68.05000000000001,69.97000000000001,71.5,67.13000000000001,1
235,Mumbai,Amravati,272034159,Elphinstone Kalwa Institute,Science,A,Marathi,Arts,77953,Open,97.15,91.78,95.98,,90.72,96.54,89.28,,91.33,95.36,92.51,1
236,Pune,Nashik,272064884,R.D. Mulund College of Arts & Science,Commerce,G,Marathi,General,28610,Reserved,82.42,82.58,84.50999999999999,,,80.61999999999999,88.81,80.74,81.08,88.41,89.44999999999999,1
237,Pune,Amravati,272054106,Dr. Kalwa Institute,Science,G,Marathi,Arts,50681,Open,65.63000000000001,69.23,62.52,61.910000000000004,71.17,65.11,64.76,66.55000000000001,68.61,66.11,67.17,1
238,Pune,Konkan,272047904,S.M. Ghatkopar College of Commerce,Science,U,English,Science,61491,Open,94.08,90.47999999999999,91.14999999999999,92.72,,,89.89,93.25999999999999,89.5,85.49,89.42999999999999,3
239,Pune,Konkan,272017103,Elphinstone Mulund Junior College,Commerce,A,Semi-English,General,80611,Open,62.989999999999995,60.68,62.61,65.92999999999999,,,63.779999999999994,65.5,58.29,56.94,62.959999999999994,3
240,Pune,Amravati,272024208,Wilson Pune College of Arts & Science,Science,U,English,General,53656,Open,74.53999999999999,71.38,72.66,,72.99,,77.21,68.88,76.84,72.34,74.00999999999999,3
241,Nashik,Pune,272061968,Gokhale Thane Vidyalaya,Arts,A,Marathi,Science,44585,Reserved,71.3,65.39999999999999,,65.73,70.82,71.83,72.67999999999999,71.02,71.08,72.59,71.12,2
242,Pune,Pune,272092919,R.D. Thane College of Arts & Science,Arts,A,English,Arts,87626,Open,86.64,80.56,83.6,87.47,89.17999999999999,,85.66,90.02,86.86999999999999,83.91,90.8,2
243,Pune,Nashik,272053778,K.C. Ghatkopar Vidyalaya,Arts,A,English,Science,31816,Open,80.87,80.59,78.46000000000001,78.6,81.4,80.2,81.95,76.94,82.66,81.12,84.41,3
244,Mumbai,Pune,272089121,Wilson Pune Vidyalaya,Science,A,English,Science,75281,Reserved,87.16999999999999,81.42999999999999,,86.52999999999999,,91.22,91.03999999999999,,91.03999999999999,87.69999999999999,88.05,3
245,Mumbai,Aurangabad,272089723,Pt. Borivali College of Commerce,Science,U,English,Science,97793,Reserved,68.77999999999999,61.339999999999996,,,,62.059999999999995,61.41,66.27,61.22999999999999,63.71999999999999,68.49,2
246,Pune,Pune,272055485,Pt. Bhandup Institute,Arts,A,Semi-English,Arts,26847,Open,56.760000000000005,58.690000000000005,61.220000000000006,57.86,,,53.22,,63.09,58.730000000000004,59.14,1
247,Nashik,Konkan,272040002,Vivekanand Andheri College of Arts & Science,Commerce,G,English,General,48023,Open,81.26,83.59,,85.73,84.03,86.68,89.41000000000001,87.16000000000001,83.13000000000001,83.79,91.18,1
248,Pune,Nagpur,272017038,Gokhale Thane Vidyalaya,Arts,A,Marathi,Commerce,10342,Reserved,79.56,74.96000000000001,78.57000000000001,,,72.12,73.27,71.13,72.21000000000001,74.3,76.77,2
249,Pune,Pune,272011200,Wilson Airoli Vidyalaya,Arts,A,Semi-English,Science,15163,Reserved,86.92,79.63000000000001,,83.44,,,87.03,,85.96000000000001,80.81,85.83,1
250,Pune,Nashik,272098508,Gokhale Ghatkopar College of Arts & Science,Arts,U,English,General,14506,Reserved,87.98,87.55,87.85000000000001,,,,96.35000000000001,,92.60000000000001,96.69,94.25,3
251,Nagpur,Pune,272065770,Wilson Thane College of Commerce,Science,U,Marathi,Commerce,98513,Reserved,68.34,61.760000000000005,68.47,69.06,67.57000000000001,72.06,70.97,65.04,70.58,71.14,69.35000000000001,2
252,Nashik,Nashik,272031006,Wilson Airoli College of Commerce,Science,A,English,General,96222,Open,74.48,67.07000000000001,,70.34,71.55,67.9,69.33,68.77,76.21000000000001,75.19,72.84,2
253,Thane,Aurangabad,272034476,Wilson Airoli Vidyalaya,Arts,A,English,Arts,28513,Reserved,87.25,85.49,96.08,,,86.83,93.55,90.03,94.69,95.27,95.47,1
254,Pune,Amravati,272025520,N.S. Ghatkopar College of Arts & Science,Science,A,English,Commerce,12725,Reserved,56.03,61.970000000000006,,56.580000000000005,58.13,55.0,60.46,56.160000000000004,60.550000000000004,55.07,59.480000000000004,2
255,Thane,Aurangabad,272032925,Wilson Bhandup Vidyalaya,Science,U,Semi-English,Commerce,81578,Open,61.15,56.339999999999996,57.91,59.15,63.089999999999996,,64.99,56.98,64.2,58.58,65.88,2
256,Nashik,Konkan,272029943,Rajmata Andheri Institute,Commerce,U,English,Commerce,61265,Reserved,64.14999999999999,59.19,61.23,69.92999999999999,69.25999999999999,,64.62,65.14999999999999,68.94,62.65,66.17,2
257,Pune,Nagpur,272048549,Wilson Pune Vidyalaya,Arts,U,Marathi,Science,97041,Open,55.949999999999996,54.089999999999996,,59.89,53.66,56.55,55.82,59.3,53.14,59.72,57.72,1
258,Thane,Aurangabad,272033729,Rajmata Andheri Institute,Commerce,G,Marathi,Commerce,16505,Reserved,71.55,71.57,72.38,68.03,,,70.97,70.44,74.05,70.56,74.32,3
259,Thane,Aurangabad,272069234,N.S. Ghatkopar College of Commerce,Commerce,A,Semi-English,Arts,21319,Reserved,82.38,84.33,85.65,88.34,83.69,88.41,88.79,87.36,88.27,80.94,85.12,2
260,Nashik,Konkan,272066122,Pt. Mulund College of Arts & Science,Science,G,English,Arts,49871,Open,73.5,77.96,,,75.55,,75.86999999999999,77.84,77.3,74.6,78.50999999999999,2
261,Pune,Konkan,272072700,Chhatrapati Airoli Institute,Commerce,A,Marathi,Commerce,97364,Open,69.33,68.57,63.419999999999995,68.99,,65.11999999999999,65.46,67.0,69.25999999999999,68.03999999999999,69.91,3
262,Nagpur,Amravati,272096067,Tilak Ghatkopar Institute,Arts,G,Marathi,General,59412,Open,83.60000000000001,77.24000000000001,87.0,87.17,80.81,79.57000000000001,78.26,79.9,87.34,83.47,85.91,3
263,Nashik,Amravati,272072121,Shree Pune Junior College,Science,G,Marathi,Science,12289,Open,86.31,79.72,84.33,83.38000000000001,88.64,,90.06,87.93,89.57000000000001,81.03,85.54,1
264,Nagpur,Pune,272050713,Chhatrapati Dadar Junior College,Commerce,A,Semi-English,General,51894,Reserved,77.88000000000001,74.74000000000001,84.33000000000001,,76.11,,75.74000000000001,82.95,80.97,78.14,82.9,3
265,Pune,Nashik,272062590,Tilak Kalwa College of Arts & Science,Arts,A,Semi-English,Science,21274,Open,62.910000000000004,65.34,63.690000000000005,66.32000000000001,61.92,60.97,66.65,,65.18,64.45,63.49,1
266,Thane,Konkan,272027607,S.M. Dadar Vidyalaya,Commerce,G,English,Science,87231,Open,76.61,70.35,,,,,70.28999999999999,72.19999999999999,69.42999999999999,70.21,73.41,2
267,Nashik,Aurangabad,272051419,R.D. Pune Vidyalaya,Commerce,G,English,Arts,13157,Open,83.42,82.89,78.59,77.26,79.4,76.96,80.32000000000001,77.69,78.75,75.96000000000001,84.16,1
268,Nashik,Aurangabad,272090382,S.M. Bhandup Institute,Commerce,U,English,Science,83331,Reserved,56.279999999999994,49.83,,58.87,59.69,52.629999999999995,51.14,59.29,59.91,55.89,59.04,2
269,Nashik,Amravati,272018825,Rajmata Pune College of Arts & Science,Science,G,English,Commerce,54291,Open,67.66,60.45,,58.6,,59.47,61.91,58.94,63.22,67.94,66.13,2
270,Mumbai,Nashik,272061136,Rajmata Borivali Junior College,Science,U,English,Science,46674,Reserved,70.92,62.769999999999996,69.28999999999999,63.18,72.19,64.97,66.42,,69.69,67.16,71.84,2
271,Pune,Konkan,272013637,Dr. Andheri College of Arts & Science,Arts,A,English,Arts,37324,Open,79.71000000000001,76.42,82.14,74.47,81.85,,78.04,78.73,79.99,77.88,80.27,2
272,Mumbai,Amravati,272023586,S.M. Bhandup Institute,Arts,U,English,Arts,28774,Open,58.63,61.29,57.22,57.89,60.07,56.019999999999996,57.57,61.1,54.72,55.11,62.71,2
273,Nashik,Nashik,272020363,Dr. Dadar Junior College,Arts,G,Semi-English,Science,74947,Reserved,65.22,65.48,68.33,68.05,,66.18,61.230000000000004,61.940000000000005,60.59,60.550000000000004,65.17,1
274,Nashik,Konkan,272033183,Elphinstone Ghatkopar Junior College,Arts,G,English,Science,25013,Reserved,88.10000000000001,83.87,81.99000000000001,82.28,83.24000000000001,83.77000000000001,85.31,,83.57000000000001,87.82000000000001,87.83000000000001,3
275,Nagpur,Aurangabad,272046822,Gokhale Thane College of Arts & Science,Commerce,A,Semi-English,Science,62513,Reserved,89.53,81.82000000000001,83.7,89.34,87.36,88.46000000000001,88.48,82.47,80.96000000000001,80.97,89.4,2
276,Mumbai,Aurangabad,272023096,S.M. Dadar College of Arts & Science,Commerce,U,English,General,95419,Open,85.8,76.78,76.83,83.41,81.78,85.7,79.07,83.23,79.75,84.21,81.27,2
277,Thane,Amravati,272022097,Gokhale Pune College of Commerce,Arts,G,Marathi,Commerce,36596,Open,60.660000000000004,62.84,65.06,55.71,,59.46,59.18,63.93,60.34,61.27,61.14,3
278,Pune,Nashik,272058825,R.D. Dadar College of Commerce,Commerce,G,Semi-English,Science,17473,Open,80.22,81.08000000000001,,79.78,74.19,77.07000000000001,83.41000000000001,80.89,78.55000000000001,82.47,81.25,1
279,Thane,Aurangabad,272075976,Tilak Thane Vidyalaya,Commerce,U,English,Commerce,94536,Reserved,66.64999999999999,72.35,,75.52,66.89999999999999,68.75,66.64,,70.28,74.84,74.11999999999999,2
280,Thane,Nashik,272042925,S.M. Andheri Junior College,Arts,G,English,Arts,35971,Reserved,88.46,89.76,96.92,,,,96.09,89.81,91.05,95.25,94.69,2
281,Pune,Amravati,272079914,N.S. Thane Vidyalaya,Arts,G,English,Commerce,40732,Open,71.75,69.11,,73.82000000000001,68.7,71.66,69.91,75.60000000000001,68.5,75.41,77.68,1
282,Nashik,Pune,272077773,Chhatrapati Kalwa Vidyalaya,Science,U,English,Science,51978,Reserved,92.84,91.97,,87.3,,,88.09,90.16,86.47,93.73,93.37,1
283,Nagpur,Nashik,272093809,Gokhale Borivali College of Arts & Science,Science,U,Semi-English,Arts,65156,Reserved,60.86000000000001,63.24000000000001,,65.29,61.660000000000004,59.830000000000005,62.06,65.34,60.38,64.65,63.36000000000001,3
284,Nashik,Nagpur,272060888,N.S. Pune Institute,Science,A,Semi-English,Science,95911,Open,62.91,55.58,66.82,64.0,57.04,,57.65,57.629999999999995,63.059999999999995,60.75,66.62,1
285,Nashik,Nashik,272017860,N.S. Mulund College of Commerce,Commerce,U,English,Commerce,38451,Open,74.65,72.7,76.74,,81.28,81.33,76.41,78.8,81.67,82.06,83.48,2
286,Mumbai,Amravati,272010802,Smt. Ghatkopar Junior College,Science,A,English,Commerce,59989,Open,66.78999999999999,65.05999999999999,69.3,72.49,63.459999999999994,72.25999999999999,72.46,,67.89,65.55,71.55,2
287,Thane,Nagpur,272080366,Chhatrapati Borivali College of Arts & Science,Commerce,G,English,General,88416,Open,63.31999999999999,64.61,64.75999999999999,67.91,,68.86999999999999,63.019999999999996,68.53999999999999,68.95,65.78,69.81,2
288,Thane,Pune,272011967,R.D. Dadar Institute,Commerce,U,English,Commerce,36315,Open,53.82,57.300000000000004,57.49,53.730000000000004,58.370000000000005,,58.42,59.220000000000006,59.93,53.61,61.46,2
289,Thane,Aurangabad,272024201,Shree Dadar College of Commerce,Science,A,Marathi,Arts,11686,Open,68.76,66.75,,66.75,,69.34,65.44,73.45,64.73,69.34,70.17,3
290,Nagpur,Konkan,272072204,Vivekanand Dadar Institute,Commerce,A,English,Science,21719,Open,66.22,66.05,72.64,,72.85,69.07,70.3,68.19,72.83999999999999,73.39999999999999,74.75999999999999,1
291,Nagpur,Amravati,272087176,Smt. Mulund College of Commerce,Science,U,Marathi,Commerce,17630,Open,71.2,69.46000000000001,68.91,,70.28,,67.96000000000001,66.5,70.98,74.46000000000001,74.33,2
292,Nagpur,Konkan,272077668,Vivekanand Andheri Junior College,Science,G,English,Science,17453,Open,85.29,81.58,85.72,,,,86.43,86.08,87.61,90.15,92.3,2
293,Pune,Pune,272061915,Elphinstone Andheri Junior College,Arts,A,English,General,14943,Open,79.6,76.27,76.94,81.14999999999999,76.58,81.27,78.83999999999999,81.57,78.41999999999999,75.85,81.61999999999999,1
294,Nagpur,Nagpur,272073071,Chhatrapati Ghatkopar Institute,Science,A,Marathi,Science,87245,Reserved,53.199999999999996,55.3,53.91,56.4,,59.93,54.86,51.15,57.339999999999996,53.22,58.839999999999996,3
295,Mumbai,Pune,272074819,Chhatrapati Borivali Institute,Science,G,English,Science,16870,Open,53.09,57.800000000000004,54.92,52.22,56.18,60.02,55.17,59.120000000000005,55.54,54.09,57.88,3
296,Mumbai,Nashik,272083246,Pt. Airoli Institute,Commerce,A,Semi-English,Commerce,78986,Open,78.05,73.03,72.53,80.71000000000001,,76.05,81.42,81.54,74.51,81.9,80.44,1
297,Nashik,Konkan,272026757,Shree Borivali College of Commerce,Arts,A,Semi-English,Commerce,88012,Open,76.91000000000001,77.97,,,81.68,76.82000000000001,80.2,,75.37,77.78,80.26,2
298,Nashik,Konkan,272035674,S.M. Ghatkopar Vidyalaya,Science,U,English,Science,87154,Reserved,65.02000000000001,57.60000000000001,62.10000000000001,62.95,62.35000000000001,,68.9,62.21000000000001,60.160000000000004,64.16000000000001,65.17,2
299,Nashik,Pune,272020372,Pt. Kalwa College of Commerce,Commerce,U,English,General,40775,Reserved,55.410000000000004,54.54,55.650000000000006,54.82,58.67,61.22,55.56,,63.260000000000005,61.46,63.43,2
300,Nashik,Nagpur,272032660,Gokhale Airoli Junior College,Science,A,Semi-English,Arts,18646,Open,68.52,73.18,,72.48,73.24,77.5,74.95,73.82,74.64,72.96,76.5,3
301,Mumbai,Konkan,272085738,Elphinstone Thane Vidyalaya,Science,A,Semi-English,Arts,82488,Open,67.16,63.209999999999994,68.51,60.53,70.34,61.49,61.519999999999996,65.85,69.32,64.47,67.75,2
302,Nashik,Aurangabad,272088056,Shree Bhandup Institute,Commerce,A,Semi-English,Arts,68113,Open,86.42999999999999,89.42999999999999,92.53999999999999,,86.0,90.16999999999999,86.14999999999999,90.58999999999999,89.58,86.82,92.97,2
303,Mumbai,Pune,272056971,K.C. Thane Institute,Commerce,A,English,Arts,78293,Reserved,57.6,58.89,,57.7,60.21,,52.63,57.52,61.72,53.43,58.480000000000004,1
304,Nagpur,Nashik,272068207,Vivekanand Andheri Junior College,Commerce,G,Semi-English,Science,24936,Reserved,79.2,76.77,84.55,80.72,83.72,,81.81,,82.12,79.78999999999999,82.42999999999999,2
305,Nagpur,Nashik,272011785,Dr. Kalwa Junior College,Commerce,A,English,Science,10465,Open,75.72,81.03999999999999,74.89999999999999,,76.58999999999999,80.97,80.78999999999999,82.1,74.72,75.49,82.8,2
306,Pune,Nashik,272045808,Wilson Dadar Institute,Arts,A,Marathi,Science,50595,Open,62.519999999999996,54.07,59.629999999999995,61.43,59.91,58.67,61.64,65.19,62.79,64.76,61.129999999999995,2
307,Nashik,Konkan,272068473,Shree Andheri Junior College,Commerce,A,Semi-English,Science,79690,Open,97.83999999999999,91.61999999999999,92.3,88.55,,96.38,94.58,,90.44999999999999,95.41,95.69999999999999,2
308,Nagpur,Pune,272027682,Elphinstone Airoli College of Commerce,Science,U,English,General,15879,Reserved,62.4,55.269999999999996,61.41,63.47,59.279999999999994,66.35,60.75,,63.44,57.31999999999999,63.839999999999996,1
309,Nagpur,Nashik,272063549,Wilson Kalwa Vidyalaya,Arts,G,Semi-English,Science,32739,Reserved,78.84,77.47,,,,78.0,74.3,76.59,78.53999999999999,82.03999999999999,81.42,1
310,Thane,Pune,272044487,Rajmata Bhandup College of Arts & Science,Science,A,English,Science,79039,Reserved,55.84,58.0,57.07,,,54.96,56.28,59.43,51.24,53.84,59.46,2
311,Thane,Konkan,272031510,Gokhale Pune College of Commerce,Commerce,A,Semi-English,Science,94370,Open,73.86,78.0,77.16,80.9,,77.6,76.98,72.24,77.88,72.91,81.01,2
312,Mumbai,Aurangabad,272093701,S.M. Thane Institute,Science,A,English,Commerce,40230,Reserved,90.32000000000001,84.01,,84.21000000000001,85.68,85.79,89.39,,86.23,83.4,86.64,2
313,Pune,Aurangabad,272065704,S.M. Andheri Institute,Science,G,Semi-English,Arts,54030,Open,92.33,91.33999999999999,,95.1,91.55,92.38,89.19,96.22,91.14999999999999,88.25,96.61999999999999,2
314,Thane,Aurangabad,272019979,Shree Thane Institute,Arts,A,English,Commerce,46527,Reserved,90.62,88.60000000000001,89.88000000000001,92.98,,86.2,86.99000000000001,85.7,84.74000000000001,87.23,91.59,1
315,Pune,Konkan,272029303,Elphinstone Borivali College of Commerce,Arts,G,Marathi,General,18450,Open,73.89,74.47999999999999,74.61999999999999,,72.06,,69.97999999999999,74.83,74.92999999999999,78.69,75.58,1
316,Nagpur,Nashik,272024536,Gokhale Borivali College of Commerce,Commerce,U,Marathi,General,53922,Open,63.51,59.79,65.22999999999999,60.01,,,61.779999999999994,60.0,67.19,67.42,65.31,1
317,Mumbai,Konkan,272031577,Pt. Kalwa College of Commerce,Commerce,U,English,Arts,81271,Open,62.17,65.61,,,66.34,60.760000000000005,62.06,,66.7,58.760000000000005,66.32000000000001,3
318,Pune,Pune,272017008,K.C. Borivali Vidyalaya,Science,G,English,Arts,88661,Open,95.32000000000001,93.9,89.92,,95.5,96.29,89.22,,94.45,88.14,94.55,1
319,Thane,Aurangabad,272036724,Smt. Mulund College of Arts & Science,Science,G,Marathi,Science,33555,Reserved,85.27000000000001,82.39,83.19000000000001,86.63000000000001,,82.63000000000001,83.74000000000001,87.76,92.01,92.54,87.82000000000001,2
320,Nagpur,Pune,272079305,N.S. Mulund Vidyalaya,Science,G,English,Arts,91919,Open,69.08000000000001,63.92,68.62,,,64.45,66.30000000000001,,63.2,61.99000000000001,68.57000000000001,2
321,Nashik,Konkan,272042929,Pt. Pune College of Commerce,Commerce,G,Marathi,General,99514,Reserved,81.21,79.56,81.36,89.2,,89.78999999999999,84.16,82.6,82.15,83.53,86.89,3
322,Nagpur,Amravati,272039990,Rajmata Mulund Junior College,Commerce,G,English,Science,16628,Reserved,65.36,63.94,74.76,69.48,74.39,,72.56,74.27,71.29,70.28,72.14,3
323,Thane,Amravati,272072747,K.C. Dadar College of Arts & Science,Commerce,G,Semi-English,General,91479,Reserved,69.58,67.3,,75.09,,75.68,72.29,69.38,76.71,70.74,74.83,3
324,Thane,Konkan,272054846,Tilak Airoli College of Commerce,Science,A,English,Commerce,40161,Reserved,63.39,63.17999999999999,67.63,,62.57,62.059999999999995,62.25,65.12,66.85,58.61,66.25999999999999,2
325,Nashik,Nashik,272039881,Elphinstone Mulund Vidyalaya,Arts,A,English,Science,16470,Open,59.55,56.959999999999994,,68.39999999999999,59.05,64.94,58.89,68.59,65.05,68.00999999999999,63.699999999999996,2
326,Nagpur,Nagpur,272066371,Dr. Thane Institute,Commerce,A,English,Science,44407,Open,85.89999999999999,90.35,,91.86999999999999,,91.36,88.44,,86.30999999999999,91.86999999999999,92.61999999999999,3
327,Pune,Pune,272055314,Chhatrapati Dadar Institute,Commerce,A,English,Commerce,38917,Reserved,86.5,82.52,85.91999999999999,,,,86.27999999999999,,88.8,79.55999999999999,88.35,3
328,Pune,Konkan,272087167,Shree Kalwa Vidyalaya,Commerce,U,English,General,93015,Open,61.62,57.75,60.73,64.14,64.69,57.82,65.9,62.9,58.12,65.24,63.77,3
329,Nagpur,Konkan,272060576,Chhatrapati Airoli College of Arts & Science,Commerce,U,English,Arts,68128,Open,60.13,63.290000000000006,,57.61,58.02,58.74,60.72,59.230000000000004,58.68,63.1,65.47,2
330,Pune,Amravati,272079768,S.M. Borivali Junior College,Science,A,Semi-English,Science,64677,Open,84.48,88.04,,91.59,87.89,83.53,82.91,90.45,90.49000000000001,85.04,89.64,2
331,Nagpur,Aurangabad,272016303,Smt. Dadar College of Commerce,Science,G,Marathi,Arts,65665,Reserved,58.43,49.93,,57.14,60.129999999999995,59.89,58.22,51.76,59.58,59.43,58.15,2
332,Nagpur,Aurangabad,272070450,R.D. Bhandup College of Arts & Science,Arts,G,Marathi,Commerce,21602,Reserved,93.17999999999999,92.69,,,91.78,,98.34,89.09,89.85,90.09,97.19,2
333,Thane,Nagpur,272082627,Pt. Mulund College of Arts & Science,Science,G,English,General,41777,Open,62.17,64.32000000000001,,60.47,,,61.7,,69.24000000000001,60.63,64.73,3
334,Mumbai,Nashik,272055921,R.D. Dadar College of Commerce,Science,A,Marathi,General,64720,Open,68.34,71.2,75.39,77.4,,68.19000000000001,73.24000000000001,68.25,74.87,77.69000000000001,77.2,3
335,Thane,Nashik,272093303,Tilak Dadar College of Arts & Science,Science,A,English,General,61630,Open,64.56,59.830000000000005,,66.22000000000001,60.13000000000001,69.81,64.92,,61.540000000000006,66.47000000000001,67.55000000000001,2
336,Pune,Nagpur,272032125,Elphinstone Pune College of Commerce,Science,A,Marathi,Arts,32333,Reserved,78.91,80.42999999999999,78.52999999999999,75.77,82.77,,75.05,75.00999999999999,79.92999999999999,74.50999999999999,83.14999999999999,1
337,Mumbai,Nashik,272058299,N.S. Dadar College of Commerce,Arts,G,English,Arts,79964,Reserved,83.55,81.52,76.28,77.38,,,80.84,76.46000000000001,82.0,85.06,84.1,3
338,Nagpur,Amravati,272044698,Smt. Airoli College of Commerce,Commerce,U,English,Arts,94239,Reserved,61.08,57.32,62.3,,,,63.21,53.8,53.81,56.73,58.52,1
339,Pune,Konkan,272077378,Wilson Pune Vidyalaya,Commerce,G,English,Arts,13241,Reserved,76.38000000000001,68.77000000000001,,73.37,,75.23,78.67,,72.65,71.28,75.2,1
340,Nashik,Nashik,272032915,K.C. Mulund College of Commerce,Science,G,Semi-English,Science,77088,Open,90.85,90.3,90.85,94.82,84.86,89.97,93.71,,93.13,86.13,91.8,2
341,Pune,Amravati,272050601,R.D. Pune Vidyalaya,Commerce,A,English,Arts,20793,Reserved,93.32000000000001,87.05000000000001,94.99000000000001,91.60000000000001,89.31,,97.3,96.87,92.93,91.06,97.9,1
342,Mumbai,Pune,272026766,N.S. Thane Vidyalaya,Commerce,G,Marathi,Commerce,28393,Open,68.30000000000001,67.29,68.47,,66.51,,66.58000000000001,70.92,70.16000000000001,70.45,75.38000000000001,1
343,Mumbai,Konkan,272026175,Elphinstone Borivali College of Commerce,Science,A,English,Science,27970,Reserved,64.43,62.99000000000001,65.81,,58.870000000000005,61.46,68.12,61.07,65.8,60.29,63.690000000000005,1
344,Nagpur,Nagpur,272098047,Vivekanand Kalwa College of Arts & Science,Commerce,U,Marathi,General,98392,Reserved,71.85000000000001,63.370000000000005,68.98,68.45,65.43,69.44,75.28,69.88000000000001,69.97,68.94,74.2,1
345,Nashik,Pune,272083071,S.M. Pune Vidyalaya,Science,U,Semi-English,Arts,93255,Open,72.11000000000001,73.91000000000001,74.73,72.7,,70.52000000000001,70.01,69.43,75.38000000000001,72.29,76.0,2
346,Nagpur,Aurangabad,272040482,Shree Pune Junior College,Commerce,G,English,Arts,66241,Open,80.72,77.14,75.93,,79.17,81.9,82.76,83.83,83.61,77.27,81.08,1
347,Nashik,Aurangabad,272075989,N.S. Thane Institute,Commerce,A,English,Science,78146,Reserved,58.42,58.300000000000004,,,54.440000000000005,62.61,59.690000000000005,,57.71,58.010000000000005,60.230000000000004,2
348,Nashik,Konkan,272052506,Smt. Dadar College of Commerce,Science,A,Semi-English,General,18752,Reserved,76.72,73.05,73.14,80.12,81.68,80.19,80.85,76.49,76.86,76.98,80.85,1
349,Nagpur,Nashik,272043189,Rajmata Dadar College of Arts & Science,Science,U,Marathi,General,55716,Open,60.629999999999995,51.199999999999996,52.43,,,60.69,56.91,60.72,61.839999999999996,58.39,58.65,3
350,Pune,Konkan,272057451,R.D. Dadar College of Commerce,Commerce,U,English,Commerce,84983,Reserved,89.97,86.05,93.42,90.86999999999999,,92.08,89.14999999999999,96.03999999999999,89.99,96.46,96.53,1
351,Thane,Nashik,272045173,Shree Borivali College of Commerce,Commerce,G,Marathi,Science,49727,Reserved,74.5,69.7,,77.43,78.38000000000001,74.09,73.08,,75.58,74.64,75.60000000000001,1
352,Nashik,Nagpur,272016179,N.S. Borivali Institute,Arts,U,Marathi,Commerce,70144,Reserved,67.28,66.29,72.83,67.39,65.39,73.55,67.76,69.16,66.09,73.25,71.82000000000001,1
353,Mumbai,Aurangabad,272014120,N.S. Mulund Junior College,Commerce,G,English,Science,43611,Open,79.51,78.06,78.54,84.12,80.28,77.07,75.04,81.09,78.96,75.77,81.23,2
354,Nagpur,Konkan,272098581,Vivekanand Dadar Institute,Science,A,Semi-English,Science,70030,Reserved,83.47,82.08,86.37,77.47,84.74,,85.55,,80.8,77.99,83.78,2
355,Pune,Konkan,272066260,K.C. Ghatkopar Institute,Science,A,English,Science,10490,Open,85.15,82.07000000000001,91.13000000000001,85.08,90.42,89.77000000000001,89.62,86.29,82.24000000000001,91.33,87.85000000000001,2
356,Nashik,Nagpur,272043353,Gokhale Bhandup Vidyalaya,Commerce,G,English,General,55545,Reserved,87.88,83.28,81.17999999999999,85.83,,,78.78999999999999,,79.50999999999999,80.92,84.89,3
357,Pune,Nashik,272050042,Shree Airoli College of Commerce,Science,U,Marathi,Commerce,38873,Reserved,86.23,84.46,,,91.22,86.96,83.82000000000001,82.64,86.03,82.96000000000001,88.81,3
358,Nagpur,Aurangabad,272095566,Gokhale Mulund Junior College,Commerce,A,English,Commerce,19653,Reserved,56.31,56.31,59.870000000000005,,,55.0,56.62,54.75,57.370000000000005,51.33,55.63,2
359,Mumbai,Aurangabad,272058159,Wilson Ghatkopar Junior College,Arts,U,English,Arts,21570,Open,80.01,70.21000000000001,72.83000000000001,71.48,76.25,,72.07000000000001,79.12,77.82000000000001,71.75,77.71000000000001,1
360,Nashik,Nashik,272047382,Tilak Borivali College of Arts & Science,Commerce,U,Marathi,Commerce,14762,Open,70.92999999999999,65.58,69.96,70.58999999999999,71.05999999999999,,69.1,,74.55,74.75,70.85,2
361,Nashik,Nagpur,272095486,Gokhale Kalwa Junior College,Science,U,Semi-English,Arts,55724,Open,96.13,94.38,,92.96,97.07,93.66999999999999,89.44,96.91,90.75999999999999,97.05999999999999,96.44,1
362,Pune,Nashik,272071239,N.S. Andheri Junior College,Commerce,A,Semi-English,Arts,99244,Open,79.33999999999999,81.33999999999999,82.94999999999999,84.75,78.47999999999999,83.3,84.94,83.72,84.08,77.77,84.97999999999999,2
363,Nagpur,Nagpur,272054373,Smt. Airoli College of Arts & Science,Commerce,U,Semi-English,General,81890,Reserved,63.39,62.17,,59.91,56.79,58.48,56.41,61.63,57.25,58.38,61.38,1
364,Thane,Nashik,272029089,Dr. Pune College of Commerce,Commerce,A,Semi-English,Arts,37799,Open,88.99,85.3,93.7,85.71,89.78,,89.97,86.69,89.82,95.34,94.64,3
365,Nashik,Aurangabad,272035796,Gokhale Pune College of Arts & Science,Arts,U,English,Science,98387,Reserved,56.01,54.51,58.11,,,59.32,59.37,54.42,54.980000000000004,54.22,60.33,3
366,Mumbai,Aurangabad,272020053,Dr. Andheri Junior College,Science,G,English,Science,42048,Open,60.28,62.129999999999995,60.79,59.690000000000005,,61.03,66.87,63.08,64.74,65.45,65.4,2
367,Nashik,Konkan,272024601,Vivekanand Dadar College of Commerce,Arts,A,Semi-English,General,11096,Reserved,58.23,60.37,66.09,57.839999999999996,63.83,64.81,59.0,57.29,62.05,57.64,64.38,2
368,Nashik,Nagpur,272028342,Smt. Mulund College of Arts & Science,Arts,U,English,Science,90330,Reserved,75.86,73.28999999999999,70.66,,73.19999999999999,,72.3,70.50999999999999,76.19,74.52,76.24,2
369,Thane,Aurangabad,272035368,Tilak Thane Vidyalaya,Science,U,Marathi,Science,66708,Reserved,63.669999999999995,65.21,67.39999999999999,69.05,66.66,66.6,64.44999999999999,,67.16999999999999,70.88999999999999,72.02999999999999,1
370,Thane,Nagpur,272030206,Tilak Ghatkopar Junior College,Science,U,Marathi,Commerce,75168,Open,70.25,75.7,70.83,74.23,69.08,77.13,77.49,75.03999999999999,69.39,75.57,75.53,3
371,Nagpur,Nagpur,272068648,Gokhale Mulund Junior College,Science,G,English,General,36581,Reserved,57.38,58.18000000000001,,,59.84,58.59,61.760000000000005,61.31,57.010000000000005,55.49,60.6,2
372,Nashik,Pune,272047416,N.S. Mulund College of Commerce,Science,A,Semi-English,Science,89254,Open,86.35,78.25999999999999,85.75999999999999,,86.14999999999999,,84.86999999999999,,84.96,82.0,87.71,1
373,Nashik,Pune,272080420,Smt. Andheri College of Commerce,Science,A,Marathi,General,68702,Open,74.91,72.19999999999999,68.83,76.19999999999999,,71.78999999999999,71.99,68.72,71.39999999999999,73.49,73.05,3
374,Pune,Nashik,272090580,Gokhale Dadar College of Commerce,Commerce,A,English,General,91098,Reserved,68.89,63.769999999999996,62.86,70.34,66.34,,67.95,60.74,60.870000000000005,70.16,66.79,1
375,Pune,Nagpur,272074389,Tilak Airoli Institute,Science,A,Semi-English,Science,76039,Open,71.92,60.870000000000005,72.03,67.44,65.47,70.22,68.39,,68.38,66.33,71.79,1
376,Mumbai,Nashik,272099413,Vivekanand Kalwa Vidyalaya,Science,G,English,Science,48039,Open,97.19,88.89,93.05,,90.61,89.97,93.43,99.04,93.52,89.44,97.86,2
377,Mumbai,Nashik,272091368,Wilson Kalwa Institute,Arts,U,English,Arts,28285,Reserved,72.65,69.97,73.15,79.25,73.48,74.37,79.85,,75.5,73.4,76.41,2
378,Pune,Konkan,272021123,Rajmata Mulund Junior College,Science,U,Marathi,General,22407,Open,98.48,91.80000000000001,,94.81,94.91000000000001,,96.25,93.52000000000001,89.59,98.30000000000001,97.79,2
379,Mumbai,Pune,272069080,Shree Dadar Vidyalaya,Arts,G,Semi-English,General,83098,Open,65.13,63.31999999999999,,,62.49999999999999,65.72999999999999,65.5,65.64,63.35999999999999,62.38999999999999,66.85,2
380,Nashik,Pune,272067460,N.S. Thane Vidyalaya,Science,G,Marathi,Science,86615,Open,68.60000000000001,68.94,69.94,69.89,66.09,73.19,74.39,,71.44,70.25,69.97,1
381,Thane,Aurangabad,272062185,Shree Dadar College of Commerce,Science,G,Marathi,Arts,26356,Reserved,77.16,67.64,70.81,75.43,,69.69,69.84,,73.85000000000001,70.32000000000001,75.7,2
382,Nashik,Pune,272037037,Gokhale Airoli Junior College,Commerce,A,Marathi,Commerce,50425,Open,91.3,87.22,93.58,92.45,92.36,95.58,90.5,88.49,95.53999999999999,95.36,93.12,1
383,Pune,Aurangabad,272041836,Elphinstone Borivali College of Commerce,Commerce,U,English,Science,28341,Reserved,70.12,67.67,61.730000000000004,67.39,68.9,,66.01,67.14,63.82,67.28,68.67,3
384,Nagpur,Nagpur,272097097,S.M. Thane College of Arts & Science,Arts,G,Semi-English,Arts,97459,Reserved,84.4,85.92,93.0,,91.01,91.48,89.76,85.61000000000001,91.59,89.21000000000001,92.87,1
385,Nagpur,Konkan,272048465,Pt. Kalwa Vidyalaya,Commerce,A,Semi-English,General,65337,Open,96.92999999999999,90.27999999999999,95.69999999999999,91.46,87.33,89.07,96.38999999999999,,87.22,93.0,95.13,1
386,Pune,Nashik,272094549,Pt. Kalwa Vidyalaya,Arts,G,English,General,89482,Reserved,72.5,72.72000000000001,,77.62,,78.99000000000001,77.0,77.0,71.0,79.18,78.48,3
387,Nashik,Nashik,272094084,Rajmata Andheri Institute,Science,U,English,Science,40511,Reserved,68.82000000000001,66.98,74.51,70.9,76.44000000000001,75.80000000000001,69.35000000000001,69.13000000000001,76.81,69.7,77.4,3
388,Mumbai,Nagpur,272098934,Wilson Andheri College of Arts & Science,Science,U,Semi-English,Arts,72176,Open,64.42,59.53,66.39,61.33,66.12,59.31,59.06,,56.83,66.18,62.26,3
389,Mumbai,Aurangabad,272031804,Elphinstone Pune Vidyalaya,Arts,U,Semi-English,Science,63502,Open,80.92999999999999,83.45,86.9,84.96,,,82.75,,89.03,82.22,89.4,1
390,Nagpur,Amravati,272074131,Vivekanand Bhandup Institute,Arts,G,Semi-English,General,56658,Open,76.30000000000001,67.79,71.05000000000001,77.92,73.09,78.13000000000001,70.24000000000001,70.0,77.78,78.74000000000001,74.82000000000001,2
391,Pune,Nagpur,272032245,Tilak Thane College of Commerce,Arts,A,Semi-English,Arts,94887,Reserved,94.5,87.6,,,,94.71,94.37,91.45,91.5,91.83,95.78,2
392,Pune,Aurangabad,272014024,Shree Mulund College of Arts & Science,Commerce,G,Marathi,Arts,13772,Open,81.98,79.36,81.33,75.4,75.88000000000001,80.97,77.06,74.36,81.35000000000001,73.92,79.58,3
393,Thane,Nagpur,272035117,Shree Mulund College of Commerce,Science,A,Marathi,General,23611,Open,93.36999999999999,91.77,89.03,92.45,96.2,,88.61,87.47999999999999,94.67,95.74,93.05,1
394,Nagpur,Konkan,272082756,Vivekanand Bhandup Vidyalaya,Arts,G,Marathi,General,63154,Reserved,78.13,78.78,84.31,76.47,,,78.19,,82.46,80.88,83.08,1
395,Pune,Nagpur,272080634,Shree Borivali College of Arts & Science,Science,U,English,Commerce,73677,Open,73.19999999999999,66.30999999999999,71.88,75.6,,75.94999999999999,69.28999999999999,71.03999999999999,74.80999999999999,68.55,75.88,2
396,Thane,Nagpur,272059742,N.S. Thane College of Commerce,Arts,A,Marathi,Commerce,65986,Open,58.93,58.95,,65.92,66.15,59.730000000000004,64.37,,65.38,58.03,66.65,1
397,Mumbai,Pune,272099795,Elphinstone Borivali Junior College,Arts,A,Marathi,General,72775,Open,61.21,50.48,59.76,,54.2,,53.0,54.519999999999996,52.7,56.07,58.76,2
398,Nagpur,Aurangabad,272032245,Tilak Ghatkopar Institute,Commerce,U,Marathi,Arts,22883,Reserved,59.6,61.21,58.46,65.8,65.59,,58.07,,64.24,65.5,65.81,3
399,Nagpur,Konkan,272019538,Tilak Dadar Institute,Arts,A,Marathi,General,76727,Open,70.89,70.98,70.93,70.85000000000001,,77.24000000000001,78.73,70.7,72.13,74.66,77.89,2
400,Pune,Nashik,272072224,Dr. Pune College of Commerce,Arts,G,English,Science,74912,Reserved,61.4,59.91,65.78,58.15,,,66.21,64.22,63.06,64.74,66.07,2
401,Pune,Amravati,272056351,Tilak Kalwa Junior College,Science,A,English,General,72746,Reserved,74.27,68.42999999999999,75.25,68.91,73.23,75.3,74.95,77.67999999999999,70.25,73.25,77.82,3
402,Nashik,Amravati,272011653,S.M. Bhandup College of Arts & Science,Arts,U,English,Arts,62183,Open,57.34,57.75,56.34,57.56,62.76,59.9,59.82,62.230000000000004,56.65,62.76,61.49,1
403,Mumbai,Aurangabad,272095859,Tilak Airoli College of Commerce,Commerce,A,English,Commerce,26418,Open,95.62,86.24000000000001,89.45,87.59,88.87,93.51,94.66,,89.79,95.08,95.43,1
404,Mumbai,Nagpur,272081159,Chhatrapati Kalwa Vidyalaya,Arts,A,English,General,96271,Open,76.55,73.89999999999999,,74.0,70.64999999999999,,77.56,,78.06,69.97,77.42999999999999,2
405,Thane,Pune,272017966,Vivekanand Borivali College of Arts & Science,Science,U,Semi-English,Commerce,79569,Open,68.3,67.86999999999999,,,71.88,74.27,75.95,,76.34,69.28999999999999,75.21,1
406,Thane,Nagpur,272018817,S.M. Kalwa Junior College,Arts,A,English,Science,81131,Reserved,94.7,94.03,94.49,91.27,98.39999999999999,,98.81,95.33,99.44,94.97,96.71,1
407,Nashik,Aurangabad,272089526,Smt. Dadar Institute,Science,U,English,Arts,38409,Open,77.35000000000001,73.72000000000001,,,73.95,,72.69000000000001,,74.35000000000001,79.98,78.23,1
408,Mumbai,Amravati,272060728,Elphinstone Mulund Junior College,Science,G,Marathi,Commerce,63630,Reserved,71.32000000000001,72.65,75.13,70.71000000000001,,,70.65,68.32000000000001,72.34,76.32000000000001,73.32000000000001,3
409,Thane,Amravati,272042366,K.C. Ghatkopar Vidyalaya,Arts,A,Marathi,Science,40957,Open,63.33,54.73,60.23,62.3,57.76,56.82,59.08,62.35,55.62,64.18,60.98,3
410,Mumbai,Nagpur,272015466,Tilak Dadar Institute,Science,G,English,Arts,66681,Open,84.0,84.36,78.87,84.71000000000001,84.43,,85.99000000000001,84.62,87.56,79.97000000000001,86.21000000000001,2
411,Mumbai,Nagpur,272043414,Dr. Borivali Vidyalaya,Science,A,Marathi,Arts,81401,Reserved,59.190000000000005,54.5,62.120000000000005,58.97,,,63.1,64.36,61.97,65.08,61.67,1
412,Thane,Nagpur,272053116,Dr. Mulund College of Commerce,Arts,G,Marathi,Commerce,78939,Reserved,68.99000000000001,67.54,,64.80000000000001,70.53,66.59,67.3,,73.2,72.07000000000001,71.31,1
413,Pune,Nashik,272093275,Wilson Thane College of Arts & Science,Arts,G,English,Commerce,97136,Reserved,58.66,57.699999999999996,,66.75,66.36,,60.12,64.72,65.01,64.65,66.9,1
414,Pune,Pune,272035475,Wilson Pune Institute,Commerce,G,English,Commerce,97394,Open,64.01,68.96,,,67.62,68.6,68.73,68.92,64.32,69.58,69.31,1
415,Thane,Pune,272014351,Wilson Ghatkopar Institute,Commerce,A,Semi-English,Arts,56862,Open,86.7,83.24000000000001,92.56,88.43,92.37,,91.94000000000001,93.31,88.86,88.0,89.61,1
416,Nashik,Amravati,272060674,R.D. Mulund Junior College,Commerce,G,Semi-English,Arts,13221,Open,85.84,82.48,81.49,86.67,,86.39,85.02,,87.96,87.58,87.9,2
417,Nagpur,Amravati,272089807,Gokhale Bhandup Junior College,Science,U,Marathi,Arts,21505,Reserved,89.76,90.45,,,83.69000000000001,85.95,92.69000000000001,,88.12,90.62,91.44000000000001,2
418,Mumbai,Aurangabad,272040086,Tilak Ghatkopar Institute,Science,G,English,Commerce,95818,Reserved,81.66,71.49,82.36,78.5,78.94,80.58,73.49,76.86,73.43,75.62,78.07000000000001,1
419,Nagpur,Aurangabad,272052598,Vivekanand Dadar Institute,Commerce,A,English,Commerce,61971,Reserved,79.79,78.79,79.79,78.54,83.0,77.76,78.54,,78.08,84.0,82.9,3
420,Thane,Nashik,272081476,Smt. Airoli Vidyalaya,Arts,G,Marathi,Science,93870,Reserved,66.26,59.98,59.73,66.01,65.42,67.02,67.88,,60.86,58.76,64.89,3
421,Mumbai,Amravati,272075934,Gokhale Airoli Junior College,Arts,G,English,General,31163,Open,96.55,93.86,97.24,,94.13,94.87,96.24,95.61,97.51,96.76,98.53,2
422,Nagpur,Aurangabad,272028982,Chhatrapati Dadar Junior College,Arts,U,English,Science,70278,Reserved,56.690000000000005,50.620000000000005,,51.940000000000005,57.46,59.11,57.06,55.24,51.49,56.29,57.53,1
423,Pune,Nashik,272044965,K.C. Airoli College of Arts & Science,Science,U,Marathi,General,62627,Open,87.33,86.41,81.49000000000001,83.79,85.61,80.98,88.43,87.64,83.93,82.76,86.0,3
424,Nashik,Pune,272091805,Chhatrapati Bhandup Vidyalaya,Commerce,U,English,Science,32530,Reserved,65.13,61.12,60.949999999999996,63.18,60.44,,62.9,59.33,60.87,64.09,63.8,2
425,Nagpur,Amravati,272040072,Shree Bhandup Vidyalaya,Science,A,Marathi,Commerce,87610,Open,90.53999999999999,92.11,90.33999999999999,,92.35,93.27999999999999,95.91999999999999,88.41,91.36999999999999,94.92999999999999,94.19,1
426,Nashik,Konkan,272053387,Wilson Borivali Vidyalaya,Commerce,G,Semi-English,Arts,30829,Open,67.86,60.279999999999994,,61.38999999999999,61.559999999999995,,66.41,61.25999999999999,63.839999999999996,68.55999999999999,65.03,2
427,Pune,Amravati,272040083,Shree Mulund College of Commerce,Commerce,G,English,General,34127,Open,74.94,77.58,77.46000000000001,,78.35000000000001,70.9,76.23,70.42,74.31,75.06,77.41,2
428,Nagpur,Aurangabad,272050053,Gokhale Pune College of Commerce,Arts,A,Semi-English,Arts,65720,Open,59.39,53.510000000000005,,59.36000000000001,57.77,63.7,55.88,,60.82,59.260000000000005,62.470000000000006,2
429,Thane,Amravati,272011548,Pt. Mulund College of Arts & Science,Science,U,English,General,66656,Open,63.17,65.54,70.35000000000001,,,69.15,66.03,,68.98,66.38000000000001,71.0,2
430,Mumbai,Konkan,272014687,Tilak Pune Institute,Science,U,Semi-English,Arts,67013,Open,70.24000000000001,65.69,,64.83,62.010000000000005,68.98,68.92,63.86000000000001,69.80000000000001,69.42,70.51,2
431,Pune,Amravati,272093148,Chhatrapati Ghatkopar Institute,Science,G,English,Science,68176,Open,92.62,95.39,,,96.93,97.78,92.72,,98.41,94.95,96.41,2
432,Nashik,Aurangabad,272023610,Wilson Kalwa Vidyalaya,Arts,A,English,Arts,77465,Reserved,63.38,57.02,61.86,56.49,61.57,,56.410000000000004,55.77,61.78,59.86,63.53,2
433,Nashik,Pune,272077463,Shree Bhandup Vidyalaya,Commerce,G,Marathi,General,77486,Reserved,66.25999999999999,71.53999999999999,71.28,,74.35,,73.89999999999999,73.5,74.05,67.39999999999999,73.24,1
434,Pune,Aurangabad,272019060,Dr. Andheri Institute,Science,U,English,Commerce,11467,Reserved,91.13,86.02,94.88,90.32000000000001,90.45,92.0,97.05,94.3,95.48,96.84,93.29,1
435,Thane,Nashik,272061948,Tilak Andheri Institute,Science,G,Semi-English,General,84694,Reserved,61.730000000000004,56.56,61.43,62.07,54.54,61.88,62.25,60.910000000000004,62.870000000000005,61.85,63.97,1
436,Thane,Aurangabad,272067742,N.S. Thane Institute,Commerce,A,English,Arts,35521,Reserved,69.46,69.83,72.91,,63.8,63.67,67.28,,69.50999999999999,66.16,71.95,2
437,Nashik,Nashik,272072150,S.M. Thane College of Arts & Science,Science,U,English,Science,68660,Reserved,53.76,57.46,58.07,58.989999999999995,54.1,,58.14,60.86,55.449999999999996,56.55,57.379999999999995,1
438,Pune,Amravati,272076211,Gokhale Ghatkopar Junior College,Arts,U,Marathi,General,94355,Open,70.96,74.22,,73.03999999999999,77.16,,75.7,77.92,70.14,73.94,74.02,2
439,Pune,Nashik,272047565,Rajmata Mulund Junior College,Commerce,G,English,Science,62046,Open,84.33,77.9,79.35000000000001,84.13,78.45,79.18,78.36,81.82000000000001,83.81,84.01,84.48,1
440,Mumbai,Nagpur,272077395,Pt. Mulund College of Arts & Science,Science,G,English,Commerce,21223,Open,71.34,77.12,77.12,,72.00999999999999,71.86,76.85,,73.63,71.08,75.81,2
441,Nashik,Amravati,272018776,R.D. Kalwa College of Commerce,Science,U,Marathi,Science,61796,Open,79.27,81.31,81.78,76.97999999999999,75.28999999999999,83.02,83.69,79.78,81.75,84.07,84.03,3
442,Thane,Nashik,272065703,N.S. Dadar Institute,Arts,A,Marathi,Science,52580,Reserved,63.01,62.66,,,61.709999999999994,,65.42,63.88999999999999,65.14999999999999,63.88999999999999,67.75,1
443,Nagpur,Aurangabad,272055264,Gokhale Pune College of Commerce,Science,U,Semi-English,General,32152,Reserved,80.99,79.85,,,,79.58,79.1,82.97999999999999,83.55,85.38,84.88999999999999,2
444,Thane,Konkan,272032577,Vivekanand Dadar Institute,Science,G,Semi-English,Science,34544,Open,66.86000000000001,61.830000000000005,,65.52000000000001,69.59,,64.16000000000001,72.26,69.16000000000001,70.2,68.4,3
445,Thane,Amravati,272046549,Smt. Dadar Institute,Arts,U,English,Science,82128,Reserved,52.82,55.51,,55.9,56.33,57.47,53.32,52.7,53.71,57.34,58.48,1
446,Nagpur,Nashik,272043305,Gokhale Kalwa Vidyalaya,Arts,U,Marathi,Science,93994,Reserved,84.51,76.75,80.99,,80.75,82.16,76.75,81.21,80.27,80.36,80.76,3
447,Nashik,Konkan,272043343,Rajmata Bhandup College of Arts & Science,Arts,U,English,Arts,88935,Reserved,71.67,66.49000000000001,69.85000000000001,,69.03,77.44,74.39,70.03,70.68,68.15,76.25,2
448,Mumbai,Nashik,272097821,N.S. Ghatkopar Vidyalaya,Arts,A,Marathi,Science,98601,Open,96.73,86.75,93.26,91.15,94.27000000000001,94.02000000000001,92.52000000000001,96.96000000000001,91.47,93.80000000000001,94.12,2
449,Thane,Nashik,272057115,Shree Pune College of Arts & Science,Science,G,English,Science,80487,Open,97.99,95.03,,92.19,,,90.83999999999999,92.49,96.92,92.72,98.38,1
450,Thane,Nashik,272044295,Shree Pune Junior College,Science,G,Semi-English,Science,89848,Reserved,88.06,85.05,89.13,,90.49,90.07000000000001,95.76,90.73,94.62,91.09,92.47,2
451,Nashik,Aurangabad,272044326,N.S. Ghatkopar Institute,Arts,U,Marathi,General,10088,Reserved,82.49,81.38,87.35,83.25999999999999,82.66,90.5,91.47,88.6,88.69,87.56,91.39999999999999,2
452,Nashik,Nashik,272066032,K.C. Ghatkopar Institute,Commerce,G,Semi-English,General,70791,Reserved,56.68,62.040000000000006,,55.660000000000004,56.370000000000005,62.6,63.800000000000004,55.83,61.300000000000004,56.92,63.34,2
453,Pune,Konkan,272017010,Smt. Dadar Institute,Commerce,G,Semi-English,Science,48198,Open,94.34,82.54,85.5,85.21000000000001,93.24,91.7,87.95,91.79,87.78,93.63,92.07000000000001,3
454,Nashik,Nagpur,272079695,Smt. Andheri Junior College,Arts,G,Semi-English,Science,86124,Reserved,87.16,83.01,84.01,82.95,87.22,,90.31,,89.22,91.79,90.49000000000001,2
455,Nashik,Nashik,272037559,Gokhale Dadar College of Commerce,Science,U,Semi-English,Arts,86510,Reserved,65.75,60.36999999999999,,67.71,,66.99,62.519999999999996,65.67999999999999,67.27999999999999,70.97,70.11,1
456,Thane,Nagpur,272080134,Vivekanand Kalwa Institute,Commerce,U,English,Science,41698,Open,86.49000000000001,89.78,,90.82000000000001,,88.9,86.39,85.81,85.35000000000001,91.41000000000001,87.80000000000001,1
457,Mumbai,Pune,272057399,N.S. Thane Vidyalaya,Science,U,English,Commerce,51679,Reserved,80.75,86.39,81.87,88.93,,89.64,87.97,88.17,88.07,85.22,86.14,1
458,Thane,Amravati,272018645,N.S. Ghatkopar Vidyalaya,Commerce,A,English,Science,84134,Open,75.58,70.26,,,,76.77,78.5,72.29,72.59,78.2,80.23,3
459,Nashik,Aurangabad,272072273,S.M. Mulund College of Arts & Science,Science,U,English,General,80183,Open,74.60000000000001,77.71000000000001,,74.26,75.06,,83.31,,79.74000000000001,77.15,82.02000000000001,1
460,Pune,Pune,272089005,Tilak Andheri College of Arts & Science,Science,G,Marathi,General,23916,Open,56.96,59.27,,,54.56,,60.18,,60.74,54.1,60.25,1
461,Mumbai,Pune,272091204,Vivekanand Andheri College of Arts & Science,Science,U,Marathi,Science,27770,Reserved,66.52999999999999,59.489999999999995,67.16999999999999,,,63.75999999999999,63.06999999999999,62.10999999999999,67.36999999999999,69.67999999999999,65.83999999999999,1
462,Pune,Konkan,272038500,Pt. Andheri Institute,Commerce,A,Marathi,General,52396,Reserved,60.529999999999994,63.08,69.58999999999999,67.85,67.05,66.97,62.60999999999999,68.96,69.00999999999999,68.47,68.16999999999999,3
463,Nagpur,Konkan,272069026,Vivekanand Andheri College of Arts & Science,Commerce,A,Semi-English,Arts,54747,Reserved,90.55,81.92,87.44,,88.07000000000001,87.94,86.76,90.53,88.43,83.27000000000001,90.57000000000001,2
464,Pune,Nagpur,272082413,Pt. Mulund College of Arts & Science,Commerce,G,Semi-English,General,91590,Open,69.44,67.25999999999999,72.38,66.57,,74.77,70.74,72.33999999999999,66.33999999999999,71.0,71.14,3
465,Pune,Nagpur,272024044,Dr. Kalwa Vidyalaya,Arts,G,English,Commerce,72471,Reserved,60.26,50.68,59.6,59.07,53.79,,58.62,55.84,51.71,53.84,57.59,2
466,Nashik,Aurangabad,272012040,Vivekanand Airoli Institute,Science,A,English,Science,72950,Reserved,58.55,64.49,59.75,64.63,,63.33,63.48,64.89,60.97,59.03,65.76,3
467,Nashik,Aurangabad,272094120,Elphinstone Bhandup Junior College,Science,G,English,General,70929,Open,68.94000000000001,68.99000000000001,,,72.47000000000001,,69.61,75.33000000000001,74.24000000000001,72.54,73.85000000000001,1
468,Nashik,Amravati,272099946,K.C. Thane College of Commerce,Arts,A,English,General,29961,Open,69.83999999999999,73.85,68.28,67.46,,69.08,72.16999999999999,69.21,69.16,68.05,72.94,1
469,Nashik,Nashik,272095316,Gokhale Thane Vidyalaya,Science,G,Marathi,Science,66863,Reserved,76.9,78.15,,,77.26,,80.98,78.39,80.57000000000001,80.07000000000001,82.83,1
470,Nashik,Aurangabad,272097755,N.S. Kalwa College of Commerce,Arts,G,Marathi,General,52299,Open,90.42,86.88000000000001,89.56,95.64,,95.47000000000001,88.24000000000001,91.04,88.95,94.58000000000001,96.12,2
471,Pune,Aurangabad,272052008,R.D. Thane Institute,Science,U,Marathi,Commerce,89070,Reserved,64.96000000000001,63.44,57.760000000000005,63.75,,61.78,65.45,63.92,63.980000000000004,62.010000000000005,64.83,2
472,Nagpur,Nagpur,272041578,Pt. Dadar Junior College,Arts,U,Semi-English,Science,75012,Reserved,67.41,67.97,,69.86,68.07,63.129999999999995,63.39,69.3,68.45,63.14,67.66,1
473,Nashik,Nashik,272094364,Vivekanand Ghatkopar College of Commerce,Science,U,Semi-English,General,59831,Reserved,82.54,81.34,86.57000000000001,86.19000000000001,83.59,,86.12,84.7,84.25,91.18,87.78,1
474,Nagpur,Amravati,272088086,Chhatrapati Kalwa Vidyalaya,Arts,A,English,Arts,48847,Open,80.32,81.96,,88.88,87.75999999999999,85.16,87.83,,84.45,82.82,86.33,2
475,Nagpur,Konkan,272026165,Smt. Borivali College of Arts & Science,Commerce,U,Marathi,Arts,13268,Reserved,89.5,94.56,94.12,96.37,,96.10000000000001,92.49000000000001,88.30000000000001,96.44,93.78,95.64,1
476,Thane,Amravati,272029278,R.D. Pune Vidyalaya,Arts,U,English,Science,81964,Open,88.03,84.4,90.08000000000001,87.10000000000001,92.39,93.69000000000001,87.11,92.68,92.81,88.06,94.39,2
477,Thane,Nashik,272080337,Wilson Dadar Junior College,Science,A,English,General,34636,Reserved,76.0,76.3,81.6,74.91,,77.48,79.63,,76.51,81.83,79.67,1
478,Mumbai,Konkan,272069833,Gokhale Ghatkopar College of Arts & Science,Commerce,A,English,Arts,83012,Open,66.22,69.94,65.95,68.79,73.37,,68.97,72.77,72.66,73.46,71.46,2
479,Thane,Konkan,272075842,R.D. Ghatkopar College of Commerce,Arts,G,English,Commerce,58412,Open,59.470000000000006,57.95,,60.230000000000004,60.35,53.970000000000006,63.64,61.290000000000006,59.160000000000004,54.06,61.190000000000005,2
480,Nashik,Konkan,272077173,R.D. Dadar College of Arts & Science,Commerce,G,English,General,79756,Reserved,73.38000000000001,69.2,67.64,68.03,67.5,69.61,74.26,69.11,73.95,66.07000000000001,74.51,2
481,Nagpur,Amravati,272096647,Smt. Dadar College of Commerce,Commerce,U,English,Commerce,13229,Reserved,62.75,59.31,67.98,67.07000000000001,60.74,59.22,63.870000000000005,64.26,67.79,60.95,64.39,1
482,Mumbai,Nagpur,272043483,Elphinstone Ghatkopar Institute,Commerce,A,Marathi,Arts,51561,Open,72.05,66.47999999999999,77.16,68.28999999999999,,,74.91999999999999,76.72999999999999,71.69999999999999,73.75,77.78999999999999,1
483,Thane,Nashik,272080630,Chhatrapati Dadar Vidyalaya,Commerce,A,Marathi,Science,13843,Open,72.61999999999999,65.92,73.3,69.0,65.64,70.27,69.42,75.39999999999999,75.33,70.00999999999999,72.39999999999999,3
484,Pune,Amravati,272060593,Gokhale Ghatkopar College of Arts & Science,Commerce,G,English,Commerce,19494,Reserved,62.78999999999999,64.30999999999999,,,,60.779999999999994,63.989999999999995,64.64999999999999,67.11999999999999,69.17999999999999,67.0,2
485,Mumbai,Amravati,272091539,K.C. Ghatkopar Institute,Commerce,G,English,Arts,48129,Open,82.55000000000001,80.61,79.42,79.9,,,83.99000000000001,76.28,80.96000000000001,78.99000000000001,80.57000000000001,2
486,Nashik,Pune,272084435,Smt. Bhandup Junior College,Arts,U,Semi-English,Science,26357,Reserved,60.33,52.1,58.38,59.38,59.67,,61.36,59.21,61.39,58.96,59.4,2
487,Nagpur,Aurangabad,272085927,Gokhale Dadar College of Commerce,Science,A,English,General,67778,Reserved,73.82000000000001,68.5,73.01,67.57000000000001,73.45,70.76,69.88000000000001,71.86,72.14,68.31,73.15,1
488,Nashik,Amravati,272065782,Elphinstone Pune College of Commerce,Science,A,Semi-English,Arts,24334,Reserved,65.21000000000001,67.48,,,69.91000000000001,68.52000000000001,68.21000000000001,66.14,74.72,71.01,70.99000000000001,3
489,Nashik,Pune,272086850,Shree Kalwa Institute,Arts,A,Marathi,Arts,60794,Reserved,60.24,56.190000000000005,62.11,62.07,65.63000000000001,,62.75,65.49000000000001,62.64,58.480000000000004,62.910000000000004,3
490,Pune,Nagpur,272079165,K.C. Dadar Junior College,Arts,A,English,General,53209,Reserved,77.3,77.36,82.2,,81.68,81.62,82.27000000000001,79.16000000000001,78.42,76.0,83.15,2
491,Pune,Nagpur,272077435,Shree Pune Institute,Commerce,U,English,General,73287,Open,59.199999999999996,57.21,,,61.69,,60.53,62.519999999999996,55.76,60.37,60.73,3
492,Nagpur,Nashik,272030316,N.S. Kalwa College of Commerce,Commerce,U,English,General,82277,Open,70.55,74.97,,78.56,79.1,79.96000000000001,79.23,,78.17,73.22,76.53,1
493,Thane,Pune,272088492,R.D. Thane College of Arts & Science,Science,G,English,Science,86377,Open,89.34,96.51,,95.21000000000001,94.72000000000001,,95.14,,92.25,98.51,94.77000000000001,2
494,Nashik,Amravati,272017985,Dr. Kalwa Institute,Science,A,English,Science,34703,Reserved,86.88,79.21000000000001,77.84,,,85.15,80.99000000000001,80.54,84.85000000000001,77.41,82.5,3
495,Thane,Nashik,272050117,Tilak Mulund College of Arts & Science,Commerce,A,Marathi,General,84928,Reserved,83.9,83.21000000000001,79.34,,,82.61,76.65,78.93,79.11,81.35000000000001,82.59,1
496,Nagpur,Pune,272051222,N.S. Dadar Institute,Science,A,English,Science,19171,Open,84.71,78.99,84.41,86.92,82.81,79.38,83.33,86.03999999999999,80.89,80.94,87.87,1
497,Nashik,Amravati,272073077,Smt. Mulund College of Commerce,Commerce,A,Marathi,Arts,28228,Open,88.0,87.7,93.91000000000001,95.75,97.13000000000001,89.97,94.2,89.86,92.52000000000001,88.84,94.13000000000001,2
498,Thane,Nashik,272085861,Rajmata Andheri Vidyalaya,Science,G,Marathi,Science,87362,Reserved,79.32000000000001,76.5,71.43,,,77.76,76.31,71.53,79.27000000000001,81.0,80.63000000000001,1
499,Nashik,Nashik,272027412,Dr. Kalwa Vidyalaya,Arts,U,English,Arts,56200,Open,76.32,82.22,82.8,,81.97,,78.22,77.41,85.35,81.91,81.08,3
500,Pune,Aurangabad,272072828,Wilson Pune Vidyalaya,Arts,A,English,Arts,61967,Open,57.0,55.519999999999996,,,,55.4,60.81,,56.29,60.589999999999996,59.23,1
501,Pune,Nagpur,272023717,Gokhale Andheri Vidyalaya,Commerce,U,English,Science,55995,Open,70.0,67.59,72.23,69.8,78.71000000000001,75.74000000000001,69.96000000000001,77.49000000000001,69.74000000000001,69.60000000000001,76.07000000000001,2
502,Mumbai,Amravati,272045945,Elphinstone Ghatkopar Institute,Commerce,G,English,General,22165,Reserved,53.99,59.78,54.940000000000005,61.43,54.54,55.760000000000005,54.07,60.92,56.81,56.96,60.510000000000005,1
503,Nagpur,Aurangabad,272068905,S.M. Andheri Institute,Science,G,Marathi,Commerce,80042,Open,84.73,82.78,,89.31,,,86.17,,86.29,82.43,87.26,1
504,Thane,Nashik,272099263,Tilak Borivali College of Arts & Science,Arts,A,English,Commerce,79845,Reserved,66.61,62.22999999999999,63.3,65.46,63.15,,64.41,69.06,66.39,71.78999999999999,67.06,3
505,Nashik,Nashik,272028026,N.S. Andheri College of Arts & Science,Commerce,A,Marathi,Science,67855,Reserved,97.76,92.19,92.36,97.76,94.79,98.34,91.89,,90.96000000000001,96.91000000000001,96.33,2
506,Mumbai,Pune,272043265,Pt. Thane Junior College,Science,A,English,Arts,20522,Open,85.16000000000001,80.19,80.06,78.51,,86.23,79.52000000000001,,87.12,82.18,84.08,1
507,Nagpur,Aurangabad,272059393,Dr. Dadar College of Arts & Science,Arts,U,English,Commerce,94972,Open,71.19999999999999,64.97999999999999,67.39999999999999,63.69,63.949999999999996,69.53,71.82,67.03,63.489999999999995,65.97999999999999,67.33999999999999,1
508,Nagpur,Konkan,272040480,Pt. Kalwa Vidyalaya,Arts,A,Marathi,Arts,24961,Open,65.75,63.2,62.27,64.99000000000001,69.49000000000001,62.64,61.050000000000004,,69.56,68.86,65.08,2
509,Nagpur,Amravati,272014774,Smt. Airoli Junior College,Arts,A,Marathi,Arts,50418,Open,74.78,70.74,74.38,,,72.31,72.86,73.46,69.76,69.94,73.16,3
510,Thane,Nagpur,272021736,Pt. Kalwa College of Commerce,Commerce,U,English,Arts,78889,Open,76.36,77.61999999999999,73.92999999999999,,75.17999999999999,,77.1,73.1,81.08999999999999,76.19999999999999,81.61999999999999,2
511,Pune,Aurangabad,272088409,Tilak Thane College of Commerce,Commerce,A,English,Arts,66168,Open,78.03,72.81,81.55000000000001,,80.21000000000001,,80.68,81.96000000000001,76.93,76.35000000000001,81.53,2
512,Mumbai,Nashik,272080837,S.M. Andheri College of Commerce,Commerce,A,Marathi,Commerce,15161,Reserved,90.03,88.08,,91.89999999999999,,95.45,87.12,,93.59,96.11,92.99,1
513,Thane,Pune,272059982,Pt. Andheri Institute,Arts,U,English,Science,17350,Reserved,71.87,70.88000000000001,,74.49000000000001,,77.34,73.99000000000001,,70.82000000000001,80.2,75.89,3
514,Nashik,Amravati,272043113,Smt. Thane Institute,Arts,A,English,Science,95391,Open,70.62,69.17,,78.45,,,77.14,,75.86000000000001,73.35000000000001,80.2,2
515,Thane,Nagpur,272032941,Chhatrapati Ghatkopar Vidyalaya,Science,A,Marathi,Arts,57324,Open,68.32,74.25,,68.47,,,71.38,67.33,72.14999999999999,70.2,73.24,2
516,Nashik,Amravati,272045101,Elphinstone Andheri College of Arts & Science,Science,G,English,Arts,15713,Reserved,74.75,75.88000000000001,74.63000000000001,69.14,,75.51,75.3,,75.66,73.17,75.79,2
517,Nashik,Pune,272027327,Elphinstone Pune Vidyalaya,Science,A,Marathi,Science,10571,Open,83.10000000000001,81.94,,83.66,86.19,,88.72,,80.44,79.48,87.98,2
518,Nagpur,Nashik,272036703,Dr. Mulund College of Commerce,Arts,G,Marathi,General,89097,Open,92.08000000000001,87.49000000000001,,88.09,85.39,,88.36,,82.74000000000001,85.80000000000001,91.05000000000001,3
519,Thane,Nagpur,272082973,Tilak Bhandup Vidyalaya,Arts,U,Marathi,Arts,34069,Open,72.24,66.62,,68.61,66.41,,70.25,68.78999999999999,67.4,65.28999999999999,71.84,2
520,Pune,Konkan,272095026,Shree Ghatkopar Vidyalaya,Science,G,Marathi,Commerce,44326,Reserved,75.58,74.54,74.78,79.31,,,76.49,77.34,78.53,73.44,79.91,3
521,Nashik,Pune,272039672,Dr. Kalwa Junior College,Commerce,G,Marathi,Commerce,45359,Open,89.79,87.51,,83.59,,84.56,84.31,85.33,84.37,82.17,86.28,2
522,Nagpur,Konkan,272087646,Wilson Dadar Institute,Science,A,Marathi,Arts,87904,Reserved,55.69,57.69,51.86,60.19,57.12,51.67,53.08,55.309999999999995,52.08,57.42,57.28,2
523,Pune,Aurangabad,272068920,K.C. Thane Junior College,Arts,U,Semi-English,Arts,93702,Reserved,81.56,79.52000000000001,,84.55000000000001,,,80.69,86.82000000000001,89.47,83.2,87.39,3
524,Thane,Amravati,272031329,R.D. Pune College of Commerce,Arts,U,English,Science,33717,Reserved,71.64,72.71,73.02,,71.91,77.91,78.08,71.72,71.39,69.36,74.72999999999999,1
525,Pune,Nagpur,272078349,Pt. Borivali College of Commerce,Arts,A,English,General,78531,Open,90.12,89.34,,82.52,84.64,87.9,90.97,90.85000000000001,83.2,85.68,89.53,2
526,Thane,Nashik,272040862,Pt. Mulund College of Arts & Science,Commerce,U,Marathi,Science,68616,Open,90.0,82.1,,84.65,87.33,93.0,91.62,87.42,83.94,89.78,90.98,2
527,Nashik,Konkan,272041230,Dr. Kalwa Institute,Commerce,A,Marathi,General,83554,Open,56.6,51.120000000000005,55.27,54.57,,59.56,51.86,,59.86,59.45,56.86,3
528,Mumbai,Nashik,272084450,Tilak Borivali College of Arts & Science,Science,A,English,Commerce,74392,Open,75.62,67.32000000000001,73.78,,75.27000000000001,76.63000000000001,70.67,,76.59,68.93,74.11,1
529,Mumbai,Aurangabad,272023527,Dr. Kalwa Junior College,Science,U,Semi-English,Science,55820,Reserved,85.38000000000001,76.22000000000001,79.22000000000001,,79.74000000000001,81.81,83.2,84.49000000000001,81.23,84.38000000000001,84.37,1
530,Nashik,Konkan,272029785,Rajmata Mulund Junior College,Arts,G,English,Science,93814,Open,63.800000000000004,64.07000000000001,66.85000000000001,66.37,,69.36,65.32000000000001,71.14,67.9,71.56,68.21000000000001,1
531,Pune,Nashik,272024775,N.S. Andheri College of Arts & Science,Arts,U,Marathi,Arts,70693,Open,79.36,85.42999999999999,80.69,,,87.11999999999999,86.99,79.5,83.02999999999999,79.36999999999999,85.22,1
532,Thane,Nashik,272094681,Gokhale Ghatkopar College of Arts & Science,Arts,A,Marathi,Arts,16526,Open,81.06,83.26,80.55000000000001,88.22000000000001,85.94000000000001,87.15,85.10000000000001,84.31,90.22,84.13000000000001,88.43,1
533,Mumbai,Aurangabad,272096446,Dr. Dadar Junior College,Arts,U,Semi-English,Commerce,92111,Open,73.95,66.62,69.95,69.21,72.46,68.11,69.22,73.88,74.99,68.21,73.32,2
534,Thane,Pune,272082051,Smt. Airoli College of Commerce,Commerce,G,English,General,40528,Reserved,83.84,81.52,90.64,87.26,90.06,91.75,91.59,,83.89,85.46000000000001,89.41,3
535,Nashik,Nagpur,272075531,Tilak Dadar Institute,Arts,U,Marathi,General,94221,Reserved,72.54,66.44000000000001,,71.17,73.44000000000001,71.25,70.27000000000001,,69.07000000000001,67.2,69.05000000000001,2
536,Pune,Aurangabad,272013943,N.S. Ghatkopar Institute,Arts,A,English,Commerce,12183,Reserved,88.12,89.89,87.97,87.36,92.38,,92.33,,94.53,89.3,96.55,1
